TagID,Date,Time,accX,accY,accZ,gyroX,gyroY,gyroZ,compX,compY,compZ,Activity,Depth,Temp. (?C),Metadata
04_S6,04/05/2023,16:59:14.000,-0.4285,-0.1628,0.9021,1.8921,-17.6086,-7.7209,-10.9465,-14.7413,-19.4118,Active,8.77107912892092,-368.68,
04_S6,04/05/2023,16:59:14.100,-0.3906,-0.1321,0.9219,5.9433,-26.1002,-6.3400,-9.3410,-15.7630,-16.9306,,,,
04_S6,04/05/2023,16:59:14.200,-0.3311,-0.1545,0.9902,7.4463,-37.1475,-8.3008,-10.6546,-16.7847,-16.7847,,,,
04_S6,04/05/2023,16:59:14.300,-0.2297,-0.1479,1.0193,4.5395,-36.5753,0.0305,-12.1141,-20.5795,-15.6170,,,,
04_S6,04/05/2023,16:59:14.400,-0.2021,-0.1343,1.0027,5.9357,-33.5770,0.8163,-12.1141,-20.5795,-15.6170,,,,
04_S6,04/05/2023,16:59:14.500,-0.1743,-0.1206,0.9858,7.3318,-30.5786,1.6022,-12.1141,-20.5795,-15.6170,,,,
04_S6,04/05/2023,16:59:14.600,-0.1235,-0.1082,1.0032,4.3869,-25.5585,-2.0370,-11.6763,-21.6011,-14.5954,,,,
04_S6,04/05/2023,16:59:14.700,-0.0994,-0.1038,1.0229,-0.4730,-24.9710,-4.8218,-12.4061,-23.7904,-13.8656,,,,
04_S6,04/05/2023,16:59:14.800,-0.0544,-0.1130,1.0366,-2.8000,-26.3214,-2.0142,-11.6763,-24.5202,-12.8439,,,,
04_S6,04/05/2023,16:59:14.900,0.0103,-0.1333,1.0386,-1.9379,-24.0707,2.0981,-12.6980,-26.4176,-12.6980,,,,
04_S6,04/05/2023,16:59:15.000,0.0127,-0.1282,1.0469,0.9613,-16.0065,2.8305,-12.6980,-26.4176,-12.6980,Inactive,0,23.48,
04_S6,04/05/2023,16:59:15.100,0.0681,-0.1221,1.0483,1.4267,-22.7280,3.8376,-11.2384,-27.5852,-12.6980,,,,
04_S6,04/05/2023,16:59:15.200,0.1494,-0.1177,1.0210,-4.8752,-45.4178,1.8768,-12.1141,-29.3367,-11.2384,,,,
04_S6,04/05/2023,16:59:15.300,0.2368,-0.1462,0.9919,-17.0746,-45.3491,-6.1111,-10.5087,-33.2774,-10.2168,,,,
04_S6,04/05/2023,16:59:15.400,0.2856,-0.1831,0.9836,-20.3705,-40.5426,14.1754,-9.1951,-38.0939,-9.4870,,,,
04_S6,04/05/2023,16:59:15.500,0.3669,-0.2021,0.9731,-0.3357,-55.4581,13.0234,-9.1951,-38.0939,-9.4870,,,,
04_S6,04/05/2023,16:59:15.600,0.4565,-0.1660,0.9109,14.6866,-45.0745,2.6093,-10.8006,-41.1589,-11.0925,,,,
04_S6,04/05/2023,16:59:15.700,0.5098,-0.1409,0.8955,14.8849,-27.6718,-5.3558,-12.2601,-43.4942,-11.3844,,,,
04_S6,04/05/2023,16:59:15.800,0.5503,-0.1311,0.8601,8.9798,-31.3492,0.4196,-13.4277,-46.9971,-14.0115,,,,
04_S6,04/05/2023,16:59:15.900,0.6184,-0.1191,0.8110,3.2043,-42.8543,3.8300,-13.2818,-50.0621,-14.7413,,,,
04_S6,04/05/2023,16:59:16.000,0.6792,-0.1155,0.7637,3.4409,-42.1906,1.8997,-13.2818,-50.0621,-14.7413,Inactive,0,23.48,
04_S6,04/05/2023,16:59:16.100,0.7117,-0.1206,0.7178,2.9297,-42.1295,1.9455,-12.5520,-51.3757,-15.7630,,,,
04_S6,04/05/2023,16:59:16.200,0.7803,-0.0989,0.6475,8.0490,-40.6189,1.0757,-13.1358,-54.0028,-17.8063,,,,
04_S6,04/05/2023,16:59:16.300,0.8142,-0.0925,0.5996,9.8877,-39.9017,1.6098,-13.7196,-57.2138,-19.2659,,,,
04_S6,04/05/2023,16:59:16.400,0.8740,-0.0784,0.5474,9.4147,-45.8984,-2.5558,-15.0332,-59.1112,-22.3309,,,,
04_S6,04/05/2023,16:59:16.500,0.8933,-0.0574,0.4854,24.8795,-31.6849,0.1068,-15.0332,-59.1112,-22.3309,,,,
04_S6,04/05/2023,16:59:16.600,0.8887,-0.0559,0.4768,7.0114,-5.9738,3.6545,-16.4928,-59.9869,-25.2500,,,,
04_S6,04/05/2023,16:59:16.700,0.9163,-0.0630,0.3777,-3.4637,-49.7971,0.8316,-14.8873,-61.5924,-27.1474,,,,
04_S6,04/05/2023,16:59:16.800,0.9688,-0.0713,0.3604,-17.1204,-34.5688,6.5613,-15.3251,-62.6141,-29.0448,,,,
04_S6,04/05/2023,16:59:16.900,0.9663,-0.0742,0.3325,-6.1417,-2.2507,0.9918,-15.3251,-62.6141,-29.0448,,,,
04_S6,04/05/2023,16:59:17.000,0.9712,-0.0569,0.3035,12.3138,-12.3138,-8.7433,-15.1792,-63.6358,-28.8988,Inactive,0,23.48,
04_S6,04/05/2023,16:59:17.100,0.9788,-0.0366,0.2458,10.8490,-31.3492,-8.5907,-15.6170,-62.9060,-30.2124,,,,
04_S6,04/05/2023,16:59:17.200,0.9773,-0.0291,0.1782,1.2436,-32.9819,-2.0447,-16.0549,-64.2196,-32.9855,,,,
04_S6,04/05/2023,16:59:17.300,1.0132,-0.0391,0.1233,-6.6299,-47.4625,4.7607,-16.2008,-66.1170,-36.6344,,,,
04_S6,04/05/2023,16:59:17.400,0.9934,-0.0388,0.0391,-5.4245,-26.8555,2.1820,-16.2008,-66.1170,-36.6344,,,,
04_S6,04/05/2023,16:59:17.500,0.9946,-0.0432,0.0125,-4.4174,-11.5891,1.6098,-16.2008,-66.1170,-36.9263,,,,
04_S6,04/05/2023,16:59:17.600,0.9939,-0.0498,-0.0417,-5.1346,-18.8293,2.3270,-15.9089,-66.9927,-38.6777,,,,
04_S6,04/05/2023,16:59:17.700,0.9907,-0.0525,-0.0986,-9.9258,-44.6243,6.5308,-15.1792,-66.2629,-41.1589,,,,
04_S6,04/05/2023,16:59:17.800,0.9746,-0.0657,-0.2051,-9.8190,-57.9071,10.6277,-14.3035,-67.4306,-43.7861,,,,
04_S6,04/05/2023,16:59:17.900,0.9651,-0.0669,-0.2644,-6.4545,-40.7410,6.2561,-14.3035,-67.4306,-43.7861,,,,
04_S6,04/05/2023,16:59:18.000,0.9285,-0.0828,-0.3928,-4.8599,-35.3012,3.7460,-14.3035,-68.0144,-48.1647,Inactive,0,23.49,
04_S6,04/05/2023,16:59:18.100,0.8835,-0.0789,-0.4424,-4.0054,-35.1944,1.6174,-13.5737,-66.7008,-50.6459,,,,
04_S6,04/05/2023,16:59:18.200,0.8420,-0.0906,-0.5049,-3.4409,-45.5627,7.4539,-12.6980,-66.7008,-52.9812,,,,
04_S6,04/05/2023,16:59:18.300,0.8076,-0.0933,-0.5549,-3.9673,-30.1437,7.9575,-12.6980,-66.7008,-52.9812,,,,
04_S6,04/05/2023,16:59:18.400,0.7642,-0.0994,-0.6040,-2.0905,-27.2141,1.5335,-12.9899,-66.9927,-55.6083,,,,
04_S6,04/05/2023,16:59:18.500,0.8044,-0.1064,-0.6296,-4.3335,-13.0920,3.1052,-14.1575,-66.1170,-57.3598,,,,
04_S6,04/05/2023,16:59:18.600,0.7085,-0.0803,-0.6428,-1.5182,-23.2620,2.7618,-12.8439,-64.5115,-57.5057,,,,
04_S6,04/05/2023,16:59:18.700,0.6812,-0.1001,-0.7197,-3.4714,-39.1235,-0.6485,-13.4277,-63.0520,-61.0086,,,,
04_S6,04/05/2023,16:59:18.800,0.6533,-0.0918,-0.7449,-2.6550,-27.6947,-3.9673,-13.4277,-63.0520,-61.0086,,,,
04_S6,04/05/2023,16:59:18.900,0.6458,-0.1057,-0.7661,5.8517,-22.3923,1.5945,-14.1575,-63.7817,-62.3222,,,,
04_S6,04/05/2023,16:59:19.000,0.5972,-0.0811,-0.7932,7.3242,-24.0860,-0.6561,-12.9899,-62.3222,-63.7817,Inactive,0,23.49,
04_S6,04/05/2023,16:59:19.100,0.5063,-0.0771,-0.8291,-10.0174,-19.6915,-4.2953,-13.7196,-60.4248,-65.9710,,,,
04_S6,04/05/2023,16:59:19.200,0.4961,-0.0891,-0.8240,-0.6485,-37.3611,-12.9318,-13.8656,-57.3598,-67.5765,,,,
04_S6,04/05/2023,16:59:19.300,0.4338,-0.0750,-0.8511,4.5776,-27.6794,-4.6616,-13.8656,-57.3598,-67.5765,,,,
04_S6,04/05/2023,16:59:19.400,0.4268,-0.0762,-0.8982,-0.1678,-21.5607,-2.3575,-13.8656,-57.3598,-69.6199,,,,
04_S6,04/05/2023,16:59:19.500,0.3779,-0.0730,-0.9062,-0.8774,-17.6926,-2.9907,-13.4277,-56.0462,-70.3496,,,,
04_S6,04/05/2023,16:59:19.600,0.3542,-0.0740,-0.9067,-4.3030,-21.9421,-7.3853,-14.5954,-53.7109,-69.4739,,,,
04_S6,04/05/2023,16:59:19.700,0.3198,-0.0581,-0.9285,-6.5765,-15.4495,-6.6223,-14.4494,-52.3973,-70.4956,,,,
04_S6,04/05/2023,16:59:19.800,0.2710,-0.0244,-0.9551,-4.4250,-22.8043,-7.3700,-14.4494,-52.3973,-70.4956,,,,
04_S6,04/05/2023,16:59:19.900,0.2366,-0.0383,-0.9688,-5.9814,-35.3546,-13.9389,-15.4711,-51.0838,-71.2254,,,,
04_S6,04/05/2023,16:59:20.000,0.1484,-0.0303,-0.9695,0.2060,-41.1072,-12.0621,-15.3251,-48.6025,-73.9985,Inactive,0,23.49,
04_S6,04/05/2023,16:59:20.100,0.0803,-0.0186,-0.9622,-4.9286,-30.5481,-4.3564,-16.4928,-45.9754,-75.1661,,,,
04_S6,04/05/2023,16:59:20.200,0.0435,-0.0110,-0.9763,-6.7368,-13.4735,-1.1749,-16.4928,-44.2239,-75.1661,,,,
04_S6,04/05/2023,16:59:20.300,0.0078,0.0054,-0.9753,-9.1553,-17.4103,-1.5182,-16.4928,-44.2239,-75.1661,,,,
04_S6,04/05/2023,16:59:20.400,-0.0217,0.0068,-0.9587,-3.5934,-14.8468,-1.5411,-16.7847,-42.7644,-74.2904,,,,
04_S6,04/05/2023,16:59:20.500,-0.0269,0.0222,-0.9604,0.5951,-22.3999,9.8190,-17.2225,-41.7427,-73.5606,,,,
04_S6,04/05/2023,16:59:20.600,-0.1248,-0.0134,-0.9910,15.6174,-47.6456,15.4266,-16.4928,-40.4291,-76.3337,,,,
04_S6,04/05/2023,16:59:20.700,-0.2502,-0.0352,-0.9475,8.3084,-82.8629,14.5340,-14.5954,-34.1531,-76.4797,,,,
04_S6,04/05/2023,16:59:20.800,-0.4126,-0.0681,-0.8728,18.5623,-80.0629,8.3389,-14.5954,-34.1531,-76.4797,,,,
04_S6,04/05/2023,16:59:20.900,-0.5056,-0.0476,-0.8088,4.2496,-65.3229,18.2724,-13.7196,-29.4826,-75.3121,,,,
04_S6,04/05/2023,16:59:21.000,-0.5901,-0.0305,-0.7593,-3.0746,-47.6913,16.1819,-14.3035,-25.3959,-74.7282,Inactive,0,23.49,
04_S6,04/05/2023,16:59:21.100,-0.6238,0.0002,-0.7119,-4.9515,-36.4532,3.0975,-14.7413,-23.2066,-73.1228,,,,
04_S6,04/05/2023,16:59:21.200,-0.6821,-0.0334,-0.6899,-3.9444,-37.2009,-18.8980,-14.7413,-23.2066,-73.1228,,,,
04_S6,04/05/2023,16:59:21.300,-0.7693,-0.0325,-0.6021,-16.7236,-63.3850,0.0000,-14.1575,-19.9956,-73.4147,,,,
04_S6,04/05/2023,16:59:21.400,-0.8342,-0.0188,-0.5513,-11.1771,-50.7889,0.6104,-15.1792,-16.9306,-70.6415,,,,
04_S6,04/05/2023,16:59:21.500,-0.8625,-0.0146,-0.4932,-10.5743,-41.5955,-6.0959,-14.8873,-15.7630,-66.8467,,,,
04_S6,04/05/2023,16:59:21.600,-0.8994,-0.0332,-0.4033,-6.0349,-46.9742,-4.3182,-15.9089,-12.1141,-64.3655,,,,
04_S6,04/05/2023,16:59:21.700,-0.9233,-0.0217,-0.3127,4.6005,-43.8766,3.6469,-15.9089,-12.1141,-64.3655,,,,
04_S6,04/05/2023,16:59:21.800,-0.9385,-0.0415,-0.2610,-13.1149,-38.3987,-10.5286,-15.0332,-9.4870,-62.0303,,,,
04_S6,04/05/2023,16:59:21.900,-0.9717,-0.0422,-0.1746,-4.5776,-42.3660,-2.8839,-14.7413,-8.3194,-59.4031,,,,
04_S6,04/05/2023,16:59:22.000,-0.9873,-0.0327,-0.1213,1.5945,-29.2816,1.9302,-15.0332,-7.4436,-56.1921,Inactive,0,23.53,
04_S6,04/05/2023,16:59:22.100,-0.9934,-0.0286,-0.0728,-4.1428,-29.8004,6.3400,-15.1792,-6.7139,-55.4624,,,,
04_S6,04/05/2023,16:59:22.200,-0.9751,-0.0139,0.0186,-9.2850,-39.9780,8.6288,-15.1792,-6.7139,-55.4624,,,,
04_S6,04/05/2023,16:59:22.300,-0.9695,-0.0247,0.0469,-14.3509,-32.4478,3.3417,-16.3468,-6.7139,-50.7919,,,,
04_S6,04/05/2023,16:59:22.400,-0.9978,0.0027,0.1228,-11.0092,-31.4789,5.0812,-17.0766,-6.2760,-49.1864,,,,
04_S6,04/05/2023,16:59:22.500,-1.0007,0.0051,0.1797,-10.8185,-29.4952,1.1292,-16.7847,-6.2760,-46.5592,,,,
04_S6,04/05/2023,16:59:22.600,-0.9800,-0.0203,0.2344,-13.4659,-24.8871,-5.6839,-16.9306,-5.8381,-44.3699,,,,
04_S6,04/05/2023,16:59:22.700,-0.9724,-0.0271,0.2463,2.2049,-19.4244,-5.1880,-16.9306,-5.8381,-44.3699,,,,
04_S6,04/05/2023,16:59:22.800,-0.9504,-0.0405,0.2983,-10.3455,-25.2838,-4.6616,-15.0332,-5.6922,-42.4725,,,,
04_S6,04/05/2023,16:59:22.900,-0.9343,-0.0554,0.3486,-15.0986,-30.3574,-1.8539,-15.7630,-5.5462,-40.5751,,,,
04_S6,04/05/2023,16:59:23.000,-0.9182,-0.0583,0.4204,-5.0278,-39.3066,-0.5875,-15.3251,-7.7355,-36.6344,Inactive,0,23.52,
04_S6,04/05/2023,16:59:23.100,-0.8875,-0.0601,0.4780,-2.2049,-31.4331,-0.0610,-15.4711,-8.1734,-34.7370,,,,
04_S6,04/05/2023,16:59:23.200,-0.8821,-0.0676,0.5291,2.6398,-23.7808,0.2975,-15.4711,-8.1734,-34.7370,,,,
04_S6,04/05/2023,16:59:23.300,-0.8120,-0.0791,0.5979,14.9536,-41.1835,-17.4866,-15.1792,-9.0491,-32.4017,,,,
04_S6,04/05/2023,16:59:23.400,-0.7542,-0.0508,0.6387,31.0669,-45.1584,-16.9678,-14.4494,-8.9032,-31.6719,,,,
04_S6,04/05/2023,16:59:23.500,-0.7085,-0.0593,0.7078,22.0108,-45.5856,-16.3498,-14.7413,-9.7789,-28.4610,,,,
04_S6,04/05/2023,16:59:23.600,-0.6790,-0.0459,0.7463,14.1373,-31.5857,-10.3683,-13.2818,-9.1951,-27.0014,,,,
04_S6,04/05/2023,16:59:23.700,-0.6423,-0.0361,0.7976,13.5345,-40.5960,-10.4218,-13.2818,-9.1951,-27.0014,,,,
04_S6,04/05/2023,16:59:23.800,-0.5991,-0.0637,0.8613,1.9760,-38.9175,-5.1498,-14.0115,-12.5520,-25.3959,,,,
04_S6,04/05/2023,16:59:23.900,-0.4968,-0.0403,0.8684,-1.1749,-43.7622,-6.8893,-14.5954,-14.3035,-23.3526,,,,
04_S6,04/05/2023,16:59:24.000,-0.4087,-0.0720,0.9382,-8.6670,-64.5218,-15.1825,-12.6980,-15.9089,-20.8714,Inactive,0,23.54,
04_S6,04/05/2023,16:59:24.100,-0.3169,-0.1431,1.0354,-7.0877,-57.9758,-12.2375,-12.4061,-19.1199,-18.2442,,,,
04_S6,04/05/2023,16:59:24.200,-0.2234,-0.0874,0.9985,2.1973,-36.4990,1.9302,-12.4061,-19.1199,-18.2442,,,,
04_S6,04/05/2023,16:59:24.300,-0.1868,-0.0723,1.0190,9.9792,-41.0538,-1.5869,-12.8439,-21.0173,-16.3468,,,,
04_S6,04/05/2023,16:59:24.400,-0.0920,-0.0381,1.0088,12.8098,-43.8080,-0.9384,-12.9899,-23.7904,-16.4928,,,,
04_S6,04/05/2023,16:59:24.500,0.0254,-0.0496,1.0464,-0.9232,-56.1905,-2.9831,-14.3035,-26.8555,-14.0115,,,,
04_S6,04/05/2023,16:59:24.600,0.1184,-0.0796,1.0195,-15.7471,-52.8717,-3.7155,-12.4061,-30.5043,-12.9899,,,,
04_S6,04/05/2023,16:59:24.700,0.1880,-0.0737,1.0063,-3.3340,-41.8625,-0.4654,-12.4061,-30.5043,-12.9899,,,,
04_S6,04/05/2023,16:59:24.800,0.2563,-0.0847,0.9927,-5.6686,-37.9181,2.7390,-13.2818,-34.5910,-12.1141,,,,
04_S6,04/05/2023,16:59:24.900,0.3318,-0.0872,0.9551,-1.8158,-43.6554,1.9608,-12.5520,-36.1965,-13.7196,,,,
04_S6,04/05/2023,16:59:25.000,0.4106,-0.0833,0.9700,3.7079,-35.1410,4.1962,-14.3035,-38.5318,-11.6763,Inactive,0,23.54,
04_S6,04/05/2023,16:59:25.100,0.4563,-0.1211,0.9451,-13.9847,-50.1785,14.3890,-14.3035,-38.5318,-11.6763,,,,
04_S6,04/05/2023,16:59:25.200,0.5361,-0.1113,0.8711,2.0294,-47.6227,-0.5875,-11.5303,-42.4725,-13.2818,,,,
04_S6,04/05/2023,16:59:25.300,0.6318,-0.0955,0.8064,10.1929,-68.9697,-6.4468,-12.6980,-46.5592,-12.9899,,,,
04_S6,04/05/2023,16:59:25.400,0.6929,-0.0693,0.7739,7.1182,-26.9852,-3.7308,-13.7196,-49.9161,-14.8873,,,,
04_S6,04/05/2023,16:59:25.500,0.7161,-0.0911,0.7581,-5.3024,-23.0408,11.9705,-13.1358,-51.3757,-16.3468,,,,
04_S6,04/05/2023,16:59:25.600,0.7373,-0.0999,0.6975,-4.7302,-30.8990,7.4463,-13.1358,-51.3757,-16.3468,,,,
04_S6,04/05/2023,16:59:25.700,0.7944,-0.0974,0.6462,4.1275,-38.4674,-3.1204,-12.6980,-53.8569,-16.7847,,,,
04_S6,04/05/2023,16:59:25.800,0.8562,-0.0972,0.5618,-0.0153,-58.0597,3.9673,-13.2818,-56.1921,-18.2442,,,,
04_S6,04/05/2023,16:59:25.900,0.9009,-0.1001,0.4492,-0.2365,-74.0585,6.5002,-13.8656,-59.4031,-24.0823,,,,
04_S6,04/05/2023,16:59:26.000,0.9663,-0.0930,0.3035,-0.5875,-56.7856,0.2823,-13.8656,-61.7384,-26.4176,Inactive,0,23.53,
04_S6,04/05/2023,16:59:26.100,0.9802,-0.1116,0.1997,0.7858,-89.8438,8.0566,-13.8656,-61.7384,-26.4176,,,,
04_S6,04/05/2023,16:59:26.200,1.0156,-0.1172,0.0999,9.0408,-75.7828,2.9068,-12.5520,-65.9710,-32.4017,,,,
04_S6,04/05/2023,16:59:26.300,1.0012,-0.1252,-0.0330,5.6381,-57.9224,0.4959,-12.9899,-66.7008,-36.9263,,,,
04_S6,04/05/2023,16:59:26.400,0.9482,-0.0930,-0.2043,1.2054,-70.8542,2.3651,-13.8656,-68.7441,-42.4725,,,,
04_S6,04/05/2023,16:59:26.500,0.9548,-0.1016,-0.2778,1.7319,-57.1671,-5.6839,-12.8439,-67.1387,-47.5809,,,,
04_S6,04/05/2023,16:59:26.600,0.9250,-0.1152,-0.3291,3.3646,-48.2178,-0.2060,-12.8439,-67.1387,-47.5809,,,,
04_S6,04/05/2023,16:59:26.700,0.8999,-0.1035,-0.4387,-0.6561,-56.4041,-3.9978,-13.5737,-66.1170,-50.3540,,,,
04_S6,04/05/2023,16:59:26.800,0.8328,-0.0889,-0.5076,0.0763,-55.3513,-9.6741,-12.9899,-65.8251,-55.3164,,,,
04_S6,04/05/2023,16:59:26.900,0.8049,-0.0674,-0.5786,-0.8087,-32.7454,-9.3307,-14.5954,-65.0953,-57.7976,,,,
04_S6,04/05/2023,16:59:27.000,0.7783,-0.0637,-0.6023,13.3591,-42.7704,-20.7825,-15.3251,-63.4898,-60.5707,Inactive,0,23.58,
04_S6,04/05/2023,16:59:27.100,0.7192,-0.0583,-0.6729,4.1199,-17.3874,-7.8583,-15.3251,-63.4898,-60.5707,,,,
04_S6,04/05/2023,16:59:27.200,0.7134,-0.0779,-0.6912,6.0577,-28.5721,8.4229,-15.3251,-62.9060,-62.6141,,,,
04_S6,04/05/2023,16:59:27.300,0.6479,-0.0796,-0.7422,3.1967,-41.4352,4.2648,-14.3035,-61.0086,-64.2196,,,,
04_S6,04/05/2023,16:59:27.400,0.5813,-0.0991,-0.7671,17.4637,-31.8909,4.2648,-13.2818,-59.1112,-66.4089,,,,
04_S6,04/05/2023,16:59:27.500,0.5835,-0.1436,-0.7874,17.4866,-21.5530,4.3411,-12.8439,-58.9653,-68.3063,,,,
04_S6,04/05/2023,16:59:27.600,0.4961,-0.1628,-0.8267,8.3771,-41.1911,15.1672,-12.8439,-58.9653,-68.3063,,,,
04_S6,04/05/2023,16:59:27.700,0.4119,-0.1323,-0.8640,-20.8206,-54.2221,11.0703,-12.4061,-55.9002,-71.9551,,,,
04_S6,04/05/2023,16:59:27.800,0.3210,-0.1050,-0.9077,-28.5568,-52.4521,3.5934,-13.2818,-52.6892,-72.5389,,,,
04_S6,04/05/2023,16:59:27.900,0.2734,-0.0552,-0.9329,-28.6255,-37.1704,3.4637,-14.4494,-51.8135,-74.2904,,,,
04_S6,04/05/2023,16:59:28.000,0.1907,-0.0330,-0.9597,-25.0702,-23.7045,-2.9526,-15.7630,-49.0404,-73.2687,Inactive,0,23.56,
04_S6,04/05/2023,16:59:28.100,0.1597,0.0249,-0.9731,-37.6434,-24.5819,10.7117,-15.7630,-49.0404,-73.2687,,,,
04_S6,04/05/2023,16:59:28.200,0.0969,0.0981,-0.9587,-33.0963,-39.7797,18.4784,-16.9306,-48.7485,-73.2687,,,,
04_S6,04/05/2023,16:59:28.300,0.0562,0.1440,-0.9468,-18.5318,-42.4881,18.8828,-19.2659,-45.8294,-73.8525,,,,
04_S6,04/05/2023,16:59:28.400,-0.0471,0.1252,-0.9548,0.2518,-32.7072,6.6376,-18.5361,-44.8078,-73.9985,,,,
04_S6,04/05/2023,16:59:28.500,-0.0918,0.1260,-1.0015,-1.5945,-28.3585,7.1411,-18.6821,-43.4942,-75.3121,,,,
04_S6,04/05/2023,16:59:28.600,-0.1548,0.1094,-0.9658,8.0185,-42.4652,6.5231,-18.6821,-43.4942,-75.3121,,,,
04_S6,04/05/2023,16:59:28.700,-0.2175,0.1174,-1.0027,21.3852,-47.2488,4.7760,-18.0982,-39.9913,-76.1878,,,,
04_S6,04/05/2023,16:59:28.800,-0.3328,0.0759,-0.9062,-5.9814,-51.5594,-3.5477,-17.3685,-35.7586,-76.3337,,,,
04_S6,04/05/2023,16:59:28.900,-0.3982,0.0552,-0.9211,17.4561,-40.0696,-1.7471,-16.6387,-32.6936,-76.7716,,,,
04_S6,04/05/2023,16:59:29.000,-0.4739,0.0542,-0.8296,-10.5515,-49.8505,-1.4267,-16.6387,-32.6936,-76.7716,Inactive,0,23.56,
04_S6,04/05/2023,16:59:29.100,-0.5286,0.0442,-0.8311,10.6125,-26.5961,-10.6964,-16.3468,-30.6503,-75.0202,,,,
04_S6,04/05/2023,16:59:29.200,-0.5688,-0.0015,-0.7856,9.1019,-35.3012,-14.8239,-15.4711,-28.6069,-74.7282,,,,
04_S6,04/05/2023,16:59:29.300,-0.6235,-0.0166,-0.7366,2.0676,-36.9568,-7.9346,-14.1575,-24.6662,-74.2904,,,,
04_S6,04/05/2023,16:59:29.400,-0.6924,-0.0051,-0.7278,1.0452,-32.7682,-6.6299,-14.1575,-23.7904,-74.8742,,,,
04_S6,04/05/2023,16:59:29.500,-0.7444,-0.0359,-0.6619,-2.3499,-48.7061,-11.0855,-14.1575,-23.7904,-74.8742,,,,
04_S6,04/05/2023,16:59:29.600,-0.7817,-0.0234,-0.5674,-14.7858,-52.6047,-0.7935,-14.3035,-19.5578,-72.6849,,,,
04_S6,04/05/2023,16:59:29.700,-0.8506,-0.0090,-0.4980,-11.3602,-54.2908,-2.3270,-14.4494,-16.2008,-70.7875,,,,
04_S6,04/05/2023,16:59:29.800,-0.8867,-0.0332,-0.3823,-1.1368,-56.9305,-12.0850,-15.4711,-13.4277,-66.8467,,,,
04_S6,04/05/2023,16:59:29.900,-0.9253,-0.0640,-0.3071,5.6076,-51.9104,-10.4446,-13.4277,-11.0925,-63.3439,,,,
04_S6,04/05/2023,16:59:30.000,-0.9712,-0.0454,-0.1877,-0.9842,-68.9316,5.8975,-13.4277,-11.0925,-63.3439,Inactive,0,23.59,
04_S6,04/05/2023,16:59:30.100,-0.9868,-0.0430,-0.1030,-8.0032,-57.1594,0.3738,-14.0115,-8.4653,-59.5491,,,,
04_S6,04/05/2023,16:59:30.200,-0.9917,-0.0491,0.0137,0.4120,-58.5175,1.5259,-13.2818,-6.5679,-56.1921,,,,
04_S6,04/05/2023,16:59:30.300,-0.9941,-0.0186,0.1394,8.4152,-55.5954,9.1782,-14.7413,-5.4003,-51.8135,,,,
04_S6,04/05/2023,16:59:30.400,-0.9797,-0.0281,0.1980,4.3640,-53.9780,6.8207,-15.3251,-5.9841,-49.1864,,,,
04_S6,04/05/2023,16:59:30.500,-0.9448,-0.0127,0.3279,-1.5793,-64.2166,8.2245,-15.3251,-5.9841,-49.1864,,,,
04_S6,04/05/2023,16:59:30.600,-0.8979,-0.0122,0.4207,-18.2571,-62.5534,11.0855,-15.4711,-6.7139,-44.6618,,,,
04_S6,04/05/2023,16:59:30.700,-0.8708,-0.0186,0.4854,-18.9896,-49.1180,4.0817,-15.6170,-8.3194,-38.3858,,,,
04_S6,04/05/2023,16:59:30.800,-0.8057,-0.0491,0.5708,-18.6005,-47.0734,-11.0474,-14.4494,-6.8598,-35.7586,,,,
04_S6,04/05/2023,16:59:30.900,-0.7942,-0.0828,0.6343,-8.7128,-35.5377,-11.0474,-13.5737,-8.3194,-33.1315,,,,
04_S6,04/05/2023,16:59:31.000,-0.7473,-0.0720,0.6760,1.2817,-33.5464,3.8757,-13.5737,-8.3194,-33.1315,Inactive,0,23.56,
04_S6,04/05/2023,16:59:31.100,-0.6887,-0.0366,0.7351,5.0964,-32.4631,8.2397,-14.4494,-8.6113,-30.2124,,,,
04_S6,04/05/2023,16:59:31.200,-0.6987,-0.0413,0.7578,2.2354,-19.0048,0.1068,-14.5954,-10.5087,-29.7745,,,,
04_S6,04/05/2023,16:59:31.300,-0.6848,-0.0601,0.8157,-3.1281,-26.9470,-0.6790,-14.8873,-11.3844,-26.8555,,,,
04_S6,04/05/2023,16:59:31.400,-0.6172,-0.0471,0.8037,-9.2773,-24.3378,9.9258,-14.0115,-13.4277,-25.1040,,,,
04_S6,04/05/2023,16:59:31.500,-0.5483,-0.1211,0.9070,-31.9061,-40.8478,-11.7569,-14.0115,-13.4277,-25.1040,,,,
04_S6,04/05/2023,16:59:31.600,-0.5210,-0.1157,0.9070,-0.8698,-31.7993,-17.0898,-13.5737,-14.7413,-22.0390,,,,
04_S6,04/05/2023,16:59:31.700,-0.4397,-0.1311,0.9534,7.1182,-37.4756,-17.3798,-12.9899,-15.6170,-21.1633,,,,
04_S6,04/05/2023,16:59:31.800,-0.3743,-0.0713,0.8806,9.8648,-27.4353,-11.0168,-12.4061,-16.4928,-20.5795,,,,
04_S6,04/05/2023,16:59:31.900,-0.3298,-0.1992,1.0437,-1.7242,-35.3622,-18.7225,-11.8222,-18.8280,-19.1199,,,,
04_S6,04/05/2023,16:59:32.000,-0.2412,-0.1348,0.9968,-1.6632,-36.3464,-14.4882,-11.8222,-18.8280,-19.1199,Inactive,0,23.55,
04_S6,04/05/2023,16:59:32.100,-0.1899,-0.1497,1.0205,-2.5024,-41.6336,-7.4005,-10.2168,-19.8497,-16.6387,,,,
04_S6,04/05/2023,16:59:32.200,-0.1191,-0.1482,1.0188,-4.9362,-31.8375,-2.1286,-10.3627,-22.6228,-15.3251,,,,
04_S6,04/05/2023,16:59:32.300,-0.0764,-0.1675,1.0400,-3.7231,-25.0092,-2.0142,-10.6546,-23.7904,-14.1575,,,,
04_S6,04/05/2023,16:59:32.400,-0.0391,-0.1711,1.0522,-0.5035,-21.1868,-3.3722,-11.0925,-25.9797,-14.0115,,,,
04_S6,04/05/2023,16:59:32.500,-0.0112,-0.1550,1.0254,-2.1362,-18.6005,0.3128,-11.0925,-25.9797,-14.0115,,,,
04_S6,04/05/2023,16:59:32.600,0.0344,-0.1628,1.0276,-6.3019,-29.1519,-2.6398,-11.3844,-28.3150,-14.3035,,,,
04_S6,04/05/2023,16:59:32.700,0.1226,-0.1624,1.0129,0.4959,-45.6772,-8.7662,-9.7789,-30.5043,-12.9899,,,,
04_S6,04/05/2023,16:59:32.800,0.2166,-0.1704,1.0107,-4.1428,-48.8815,-4.8904,-10.8006,-32.4017,-11.3844,,,,
04_S6,04/05/2023,16:59:32.900,0.3113,-0.2209,0.9819,-26.4587,-62.8510,4.4708,-10.8006,-32.4017,-11.3844,,,,
04_S6,04/05/2023,16:59:33.000,0.4067,-0.1917,0.9231,2.8534,-39.1388,-4.4556,-7.7355,-38.6777,-11.8222,Inactive,0,23.59,
04_S6,04/05/2023,16:59:33.100,0.4846,-0.1890,0.9160,7.9651,-51.4526,-12.1231,-9.7789,-39.8453,-11.5303,,,,
04_S6,04/05/2023,16:59:33.200,0.5713,-0.1565,0.8396,8.7967,-60.0739,-2.1439,-9.6329,-44.3699,-12.5520,,,,
04_S6,04/05/2023,16:59:33.300,0.6279,-0.1462,0.7805,9.9869,-53.4286,5.2338,-11.3844,-49.3323,-14.3035,,,,
04_S6,04/05/2023,16:59:33.400,0.7085,-0.1477,0.7158,6.3324,-60.1654,4.5471,-11.3844,-49.3323,-14.3035,,,,
04_S6,04/05/2023,16:59:33.500,0.8035,-0.1533,0.6956,9.1629,-56.8619,5.5237,-11.3844,-52.2514,-16.6387,,,,
04_S6,04/05/2023,16:59:33.600,0.8425,-0.1528,0.6223,3.8071,-37.2543,10.8032,-11.6763,-55.1705,-18.6821,,,,
04_S6,04/05/2023,16:59:33.700,0.8840,-0.1511,0.5222,13.1226,-53.6346,10.1318,-11.3844,-59.2572,-21.3092,,,,
04_S6,04/05/2023,16:59:33.800,0.9158,-0.1714,0.4070,19.8975,-82.0160,25.4059,-11.8222,-63.1979,-26.7095,,,,
04_S6,04/05/2023,16:59:33.900,0.9167,-0.1707,0.2681,12.5885,-61.0352,12.4512,-11.8222,-63.1979,-26.7095,,,,
04_S6,04/05/2023,16:59:34.000,0.9607,-0.1714,0.1711,12.4969,-71.5179,-5.2032,-10.9465,-64.9494,-29.3367,Inactive,0,23.61,
04_S6,04/05/2023,16:59:34.100,1.0122,-0.1392,0.0342,23.7732,-92.0029,-11.7340,-12.1141,-67.5765,-37.2182,,,,
04_S6,04/05/2023,16:59:34.200,1.0652,-0.1213,-0.0935,4.1656,-60.0739,-8.1482,-13.8656,-66.4089,-42.7644,,,,
04_S6,04/05/2023,16:59:34.300,0.9695,-0.1321,-0.1606,-6.4621,-36.7889,8.9417,-13.1358,-68.3063,-45.2456,,,,
04_S6,04/05/2023,16:59:34.400,0.9697,-0.1440,-0.2273,-5.2185,-43.2663,5.4626,-13.1358,-68.3063,-45.2456,,,,
04_S6,04/05/2023,16:59:34.500,0.9343,-0.1389,-0.3037,-4.3030,-48.5687,-1.4801,-12.2601,-67.4306,-48.1647,,,,
04_S6,04/05/2023,16:59:34.600,0.8630,-0.1306,-0.4126,-1.4343,-57.5638,-2.5635,-13.1358,-65.9710,-51.3757,,,,
04_S6,04/05/2023,16:59:34.700,0.8850,-0.1409,-0.4646,3.5172,-37.8189,-0.2899,-12.4061,-65.8251,-55.0245,,,,
04_S6,04/05/2023,16:59:34.800,0.8184,-0.1218,-0.5293,-6.3019,-46.9513,-7.4463,-12.8439,-64.8034,-58.6733,,,,
04_S6,04/05/2023,16:59:34.900,0.7568,-0.1138,-0.6548,5.4245,-78.5751,-9.7427,-12.8439,-64.8034,-58.6733,,,,
04_S6,04/05/2023,16:59:35.000,0.6821,-0.1128,-0.6978,3.3646,-39.0701,3.2578,-13.7196,-63.6358,-64.2196,Inactive,0,23.62,
04_S6,04/05/2023,16:59:35.100,0.6418,-0.1167,-0.7495,1.8692,-28.5492,0.2136,-12.8439,-60.4248,-65.9710,,,,
04_S6,04/05/2023,16:59:35.200,0.6230,-0.1292,-0.7639,0.2441,-20.2713,-3.5019,-13.4277,-60.4248,-68.8901,,,,
04_S6,04/05/2023,16:59:35.300,0.6030,-0.1157,-0.7664,-7.0038,-21.7361,2.5482,-13.2818,-59.1112,-68.4522,,,,
04_S6,04/05/2023,16:59:35.400,0.5615,-0.0940,-0.7942,-14.3967,-10.0784,-3.3035,-13.2818,-59.1112,-68.4522,,,,
04_S6,04/05/2023,16:59:35.500,0.5300,-0.0679,-0.8125,-19.7830,-12.9471,3.0975,-14.5954,-58.0895,-68.3063,,,,
04_S6,04/05/2023,16:59:35.600,0.5269,-0.0417,-0.8428,-14.4196,-17.5018,5.8594,-14.8873,-57.5057,-68.5982,,,,
04_S6,04/05/2023,16:59:35.700,0.4993,-0.0518,-0.8499,-1.0071,-3.1967,1.8311,-15.0332,-58.2355,-68.7441,,,,
04_S6,04/05/2023,16:59:35.800,0.4722,-0.0496,-0.8569,-0.2823,-14.2517,1.4038,-14.5954,-57.2138,-70.0577,,,,
04_S6,04/05/2023,16:59:35.900,0.4668,-0.0684,-0.8662,5.4321,-7.6981,5.9204,-14.5954,-57.2138,-70.0577,,,,
04_S6,04/05/2023,16:59:36.000,0.4468,-0.0891,-0.8833,1.8539,-16.0217,11.7950,-13.5737,-56.4840,-70.7875,Inactive,0,23.67,
04_S6,04/05/2023,16:59:36.100,0.3931,-0.0955,-0.8823,-0.8469,-26.4435,17.8604,-13.2818,-55.9002,-71.9551,,,,
04_S6,04/05/2023,16:59:36.200,0.3352,-0.1174,-0.8948,10.6583,-17.2577,7.5302,-12.4061,-54.7326,-73.7066,,,,
04_S6,04/05/2023,16:59:36.300,0.2942,-0.1636,-0.9292,19.4321,-19.4168,-0.9384,-12.4061,-52.6892,-74.8742,,,,
04_S6,04/05/2023,16:59:36.400,0.2727,-0.1560,-0.9065,-2.4643,-28.6407,1.1215,-12.4061,-52.6892,-74.8742,,,,
04_S6,04/05/2023,16:59:36.500,0.2119,-0.1533,-0.9268,2.6703,-24.8337,4.9820,-10.5087,-51.9595,-75.0202,,,,
04_S6,04/05/2023,16:59:36.600,0.1873,-0.1567,-0.9629,-1.0071,-25.1541,6.6376,-11.5303,-50.3540,-76.3337,,,,
04_S6,04/05/2023,16:59:36.700,0.1489,-0.1384,-0.9529,-4.7379,-25.9857,6.2714,-11.0925,-49.0404,-77.0635,,,,
04_S6,04/05/2023,16:59:36.800,0.0857,-0.1519,-0.9771,-6.4774,-17.0288,1.6327,-11.0925,-49.0404,-77.0635,,,,
04_S6,04/05/2023,16:59:36.900,0.0835,-0.1296,-0.9736,-7.3090,-13.0386,2.6398,-11.3844,-46.1213,-78.2311,,,,
04_S6,04/05/2023,16:59:37.000,0.0256,-0.1270,-1.0049,-7.3318,-14.4730,3.7003,-11.8222,-45.9754,-77.5014,Inactive,0,23.78,
04_S6,04/05/2023,16:59:37.100,-0.0024,-0.1130,-0.9792,-11.0626,-23.5672,8.4000,-11.9682,-44.9537,-77.9392,,,,
04_S6,04/05/2023,16:59:37.200,-0.0452,-0.0857,-0.9673,-9.6207,-21.3928,9.7351,-12.9899,-43.9320,-77.5014,,,,
04_S6,04/05/2023,16:59:37.300,-0.0840,-0.0730,-0.9409,-6.2180,-22.3389,9.8648,-12.9899,-43.9320,-77.5014,,,,
04_S6,04/05/2023,16:59:37.400,-0.1255,-0.0769,-0.9412,-5.3482,-21.5454,5.8365,-13.1358,-40.8670,-78.8149,,,,
04_S6,04/05/2023,16:59:37.500,-0.1633,-0.0796,-0.9922,-1.8005,-10.0021,2.0905,-13.1358,-40.5751,-78.8149,,,,
04_S6,04/05/2023,16:59:37.600,-0.1597,-0.0583,-0.9590,-7.6141,-2.2202,-2.7313,-13.5737,-39.8453,-78.0852,,,,
04_S6,04/05/2023,16:59:37.700,-0.1794,-0.0681,-0.9673,-1.9073,-8.4076,-1.1292,-13.5737,-40.4291,-78.0852,,,,
04_S6,04/05/2023,16:59:37.800,-0.2056,-0.0669,-0.9424,2.1439,-15.8691,0.1144,-13.5737,-40.4291,-78.0852,,,,
04_S6,04/05/2023,16:59:37.900,-0.2490,-0.0583,-0.9365,-4.6616,-18.5013,1.8463,-13.4277,-38.2398,-77.6473,,,,
04_S6,04/05/2023,16:59:38.000,-0.2793,-0.0645,-0.9292,2.4796,-26.5579,0.6409,-13.5737,-37.2182,-79.5447,Inactive,0,23.9,
04_S6,04/05/2023,16:59:38.100,-0.3286,-0.0750,-0.9204,6.9885,-27.0233,-2.1286,-12.4061,-33.7153,-78.9609,,,,
04_S6,04/05/2023,16:59:38.200,-0.3738,-0.0852,-0.8943,2.1896,-28.0228,-0.6866,-13.2818,-31.6719,-78.9609,,,,
04_S6,04/05/2023,16:59:38.300,-0.4319,-0.0815,-0.8787,0.9766,-26.8021,-1.4572,-13.2818,-31.6719,-78.9609,,,,
04_S6,04/05/2023,16:59:38.400,-0.4893,-0.0911,-0.8464,5.3101,-30.7083,-0.0153,-10.6546,-29.9205,-78.0852,,,,
04_S6,04/05/2023,16:59:38.500,-0.5708,-0.0872,-0.8604,10.7498,-37.7121,-2.7466,-11.5303,-27.0014,-76.9175,,,,
04_S6,04/05/2023,16:59:38.600,-0.5952,-0.1633,-0.7351,7.0190,-65.5289,-14.9689,-11.0925,-23.3526,-76.4797,,,,
04_S6,04/05/2023,16:59:38.700,-0.6965,-0.1350,-0.6509,-6.6299,-76.8204,-2.7771,-10.3627,-17.6604,-74.2904,,,,
04_S6,04/05/2023,16:59:38.800,-0.7966,-0.1553,-0.5144,7.4081,-76.9043,1.1978,-10.3627,-17.6604,-74.2904,,,,
04_S6,04/05/2023,16:59:38.900,-0.8340,-0.1438,-0.4690,-7.2174,-32.9514,1.3809,-9.9248,-14.3035,-70.6415,,,,
04_S6,04/05/2023,16:59:39.000,-0.8677,-0.1509,-0.4395,-6.9656,-35.4156,1.6174,-9.3410,-11.9682,-69.1820,Inactive,0,23.97,
04_S6,04/05/2023,16:59:39.100,-0.8982,-0.1436,-0.3694,-3.2501,-41.5573,-2.5406,-11.2384,-11.2384,-66.7008,,,,
04_S6,04/05/2023,16:59:39.200,-0.9214,-0.1565,-0.2808,-0.0610,-51.7578,-4.3564,-9.7789,-8.6113,-62.3222,,,,
04_S6,04/05/2023,16:59:39.300,-0.9460,-0.1616,-0.1624,-1.0910,-63.6292,-4.2725,-9.7789,-8.6113,-62.3222,,,,
04_S6,04/05/2023,16:59:39.400,-0.9521,-0.1887,-0.0920,-1.6327,-69.1147,-0.5951,-8.7572,-7.5896,-58.9653,,,,
04_S6,04/05/2023,16:59:39.500,-0.9785,-0.1396,0.1267,6.0730,-83.9996,10.6964,-9.9248,-5.2543,-52.8352,,,,
04_S6,04/05/2023,16:59:39.600,-0.9651,-0.1416,0.2178,2.1667,-54.0009,2.3575,-9.7789,-4.2327,-49.1864,,,,
04_S6,04/05/2023,16:59:39.700,-0.9556,-0.1526,0.2485,-3.3188,-35.2478,0.0534,-10.6546,-3.6488,-45.6835,,,,
04_S6,04/05/2023,16:59:39.800,-0.9246,-0.1487,0.3296,-7.5912,-49.6063,5.4016,-10.6546,-3.6488,-45.6835,,,,
04_S6,04/05/2023,16:59:39.900,-0.8879,-0.1355,0.4543,-2.7924,-52.0248,2.6016,-10.8006,-4.3786,-42.0346,,,,
04_S6,04/05/2023,16:59:40.000,-0.8652,-0.1348,0.5208,6.9351,-33.6075,-3.5782,-11.6763,-6.4220,-38.5318,Inactive,0,23.92,
04_S6,04/05/2023,16:59:40.100,-0.8699,-0.1411,0.5447,10.8871,-35.9116,-2.3041,-10.5087,-6.7139,-36.1965,,,,
04_S6,04/05/2023,16:59:40.200,-0.8120,-0.1250,0.6492,-8.7891,-46.7453,8.9188,-10.0708,-8.0274,-33.1315,,,,
04_S6,04/05/2023,16:59:40.300,-0.7441,-0.1318,0.6738,-12.0239,-39.0320,7.5073,-10.0708,-8.0274,-33.1315,,,,
04_S6,04/05/2023,16:59:40.400,-0.7290,-0.1182,0.7461,-5.0201,-21.4539,2.2583,-10.2168,-8.1734,-31.5260,,,,
04_S6,04/05/2023,16:59:40.500,-0.7227,-0.1611,0.6951,-8.3160,-14.1373,1.4114,-10.3627,-8.3194,-30.2124,,,,
04_S6,04/05/2023,16:59:40.600,-0.6311,-0.1118,0.8420,-1.7624,-54.7333,8.4991,-11.3844,-10.5087,-26.8555,,,,
04_S6,04/05/2023,16:59:40.700,-0.5903,-0.1240,0.8186,1.8921,-28.6102,6.8207,-11.3844,-10.5087,-26.8555,,,,
04_S6,04/05/2023,16:59:40.800,-0.5698,-0.1135,0.8557,7.3776,-24.1547,3.0365,-11.0925,-10.5087,-25.6878,,,,
04_S6,04/05/2023,16:59:40.900,-0.5151,-0.0811,0.8809,6.5689,-21.0266,6.5689,-11.5303,-13.2818,-24.0823,,,,
04_S6,04/05/2023,16:59:41.000,-0.4912,-0.1172,0.8879,-13.0234,-23.6282,-5.3711,-12.6980,-15.0332,-22.6228,Inactive,0,23.92,
04_S6,04/05/2023,16:59:41.100,-0.4453,-0.1499,0.9348,-5.2948,-33.3481,-7.2403,-12.2601,-16.3468,-21.3092,,,,
04_S6,04/05/2023,16:59:41.200,-0.3403,-0.1394,0.9780,-1.7090,-35.0266,-8.5526,-12.2601,-16.3468,-21.3092,,,,
04_S6,04/05/2023,16:59:41.300,-0.3064,-0.1599,0.9954,7.0953,-23.8571,-9.1705,-11.6763,-17.5144,-19.2659,,,,
04_S6,04/05/2023,16:59:41.400,-0.3154,-0.0999,0.9602,5.4398,-11.4365,-2.3117,-11.8222,-18.8280,-19.1199,,,,
04_S6,04/05/2023,16:59:41.500,-0.2690,-0.1257,0.9941,2.8152,-17.6468,0.8698,-11.5303,-19.4118,-18.5361,,,,
04_S6,04/05/2023,16:59:41.600,-0.1953,-0.0620,0.9651,5.9280,-18.7454,6.1874,-12.6980,-20.5795,-17.6604,,,,
04_S6,04/05/2023,16:59:41.700,-0.1997,-0.1082,1.0190,0.2441,-16.7236,3.0899,-12.6980,-20.5795,-17.6604,,,,
04_S6,04/05/2023,16:59:41.800,-0.1897,-0.0989,1.0093,1.1139,-20.6528,-1.3657,-11.8222,-22.0390,-17.6604,,,,
04_S6,04/05/2023,16:59:41.900,-0.0964,-0.1111,1.0537,3.9902,-25.5661,2.7618,-12.9899,-23.2066,-16.7847,,,,
04_S6,04/05/2023,16:59:42.000,-0.0835,-0.0664,1.0088,6.2408,-19.6762,1.8539,-14.0115,-25.3959,-16.9306,Inactive,0,23.91,
04_S6,04/05/2023,16:59:42.100,-0.0310,-0.0950,1.0283,0.6790,-16.8839,-4.4250,-12.2601,-26.2716,-16.0549,,,,
04_S6,04/05/2023,16:59:42.200,-0.0461,-0.0369,1.0151,3.6850,-12.0544,-3.9215,-12.2601,-26.2716,-16.0549,,,,
04_S6,04/05/2023,16:59:42.300,-0.0159,-0.0242,1.0081,3.8147,-17.9062,-1.7776,-13.7196,-26.5636,-15.1792,,,,
04_S6,04/05/2023,16:59:42.400,0.0366,-0.0408,1.0291,3.1052,-16.9144,0.5112,-13.5737,-28.7529,-13.5737,,,,
04_S6,04/05/2023,16:59:42.500,0.0662,-0.0776,1.0642,-0.1526,-12.3291,0.5646,-14.0115,-29.7745,-14.8873,,,,
04_S6,04/05/2023,16:59:42.600,0.0706,-0.0366,1.0332,1.6556,-9.4833,-0.8240,-14.1575,-30.5043,-15.6170,,,,
04_S6,04/05/2023,16:59:42.700,0.0908,-0.0332,1.0396,2.2964,-7.5912,6.8207,-14.1575,-30.5043,-15.6170,,,,
04_S6,04/05/2023,16:59:42.800,0.1155,-0.0356,1.0291,4.2191,-6.8665,8.2626,-15.9089,-31.9638,-15.9089,,,,
04_S6,04/05/2023,16:59:42.900,0.1501,-0.0188,1.0090,1.6174,-12.2299,7.5455,-16.2008,-32.2557,-15.6170,,,,
04_S6,04/05/2023,16:59:43.000,0.1418,-0.0193,1.0259,-3.1662,-8.3847,6.6986,-18.8280,-34.0072,-16.2008,Inactive,0,23.88,
04_S6,04/05/2023,16:59:43.100,0.1655,-0.0461,1.0569,-4.1351,-0.4196,6.2714,-25.9797,-33.8612,-8.1734,,,,
04_S6,04/05/2023,16:59:43.200,0.1570,-0.0415,1.0518,-1.3351,6.2408,2.8610,-25.9797,-33.8612,-8.1734,,,,
04_S6,04/05/2023,16:59:43.300,0.1335,-0.0410,1.0386,-2.0905,6.6986,0.9384,25.2500,-27.5852,12.9899,,,,
04_S6,04/05/2023,16:59:43.400,0.1360,-0.0745,1.0447,-6.5918,2.9984,-0.0153,135.8828,-25.8338,-146.3915,,,,
04_S6,04/05/2023,16:59:43.500,0.1531,-0.0872,1.0354,-8.0719,2.3270,1.0605,171.9333,-72.1011,-1436.7672,,,,
04_S6,04/05/2023,16:59:43.600,0.1433,-0.0796,1.0408,-5.4169,5.0812,2.0065,-710.2102,-19.8497,-4071.8135,,,,
04_S6,04/05/2023,16:59:43.700,0.1128,-0.0525,1.0317,-0.3357,6.9580,1.0605,-710.2102,-19.8497,-4071.8135,,,,
04_S6,04/05/2023,16:59:43.800,0.1248,-0.0491,1.0010,-1.3962,3.6774,1.6632,0.0000,0.0000,-4782.0238,,,,TIMEMARK!
04_S6,04/05/2023,16:59:43.900,0.1189,-0.0959,1.0562,-6.6910,-0.0381,-1.2512,-169.4521,169.4521,-4612.5716,,,,
04_S6,04/05/2023,16:59:44.000,0.1279,-0.0955,1.0439,-5.1880,-0.1221,-0.5341,-183.9015,183.9015,-4598.1222,Inactive,0,23.88,
04_S6,04/05/2023,16:59:44.100,0.1257,-0.0930,1.0300,-3.0975,3.0823,0.5722,-189.5937,189.5937,-4592.4300,,,,
04_S6,04/05/2023,16:59:44.200,0.1331,-0.0906,1.0212,-3.1738,3.5019,0.9842,-189.5937,189.5937,-4592.4300,,,,
04_S6,04/05/2023,16:59:44.300,0.1240,-0.0901,1.0212,-3.9368,3.0746,0.2365,-150.4782,150.4782,-4631.5456,,,,
04_S6,04/05/2023,16:59:44.400,0.1282,-0.0991,1.0259,-3.9444,2.3041,0.8774,-54.1488,54.1488,-4727.8750,,,,
04_S6,04/05/2023,16:59:44.500,0.1213,-0.1121,1.0388,-2.9144,1.1749,0.4425,-102.4594,102.4594,-4679.5643,,,,
04_S6,04/05/2023,16:59:44.600,0.1179,-0.1069,1.0310,0.2518,3.9139,1.2741,-102.4594,102.4594,-4679.5643,,,,
04_S6,04/05/2023,16:59:44.700,0.1235,-0.1067,1.0208,-1.8463,1.1520,0.4654,-65.0953,65.0953,-4716.9284,,,,
04_S6,04/05/2023,16:59:44.800,0.1318,-0.1135,1.0283,-4.1656,0.7935,-0.1831,-85.6748,85.6748,-4696.3490,,,,
04_S6,04/05/2023,16:59:44.900,0.1304,-0.1077,1.0217,-3.9139,2.1286,0.7019,-74.1444,74.1444,-4707.8793,,,,
04_S6,04/05/2023,16:59:45.000,0.0928,-0.1465,1.0679,11.9781,12.5885,6.3629,0.0000,0.0000,-4782.0238,Inactive,0,23.87,
04_S6,04/05/2023,16:59:45.100,0.1121,-0.0723,0.9722,12.8555,2.6855,-1.9913,0.0000,0.0000,-4782.0238,,,,
04_S6,04/05/2023,16:59:45.200,0.0957,-0.1072,1.0552,-2.2278,6.9885,-0.5722,25.5419,-27.2933,-51.5216,,,,
04_S6,04/05/2023,16:59:45.300,0.0938,-0.0503,1.0369,3.0289,7.9346,-1.8616,10.8006,-28.8988,-27.1474,,,,
04_S6,04/05/2023,16:59:45.400,0.0686,-0.0295,1.0540,6.9275,7.4768,-2.0599,9.0491,-28.3150,-25.1040,,,,
04_S6,04/05/2023,16:59:45.500,0.0476,-0.0349,1.0859,4.2648,3.6774,-0.1526,8.0274,-27.2933,-24.0823,,,,
04_S6,04/05/2023,16:59:45.600,0.0652,-0.0422,1.0469,1.2970,-2.1667,0.9308,8.0274,-27.2933,-24.0823,,,,
04_S6,04/05/2023,16:59:45.700,0.0981,-0.0469,1.0273,-4.9286,-4.4098,0.7477,7.5896,-29.1907,-24.8121,,,,
04_S6,04/05/2023,16:59:45.800,0.0981,-0.0525,1.0188,-6.3629,-0.5035,0.4425,7.8815,-28.8988,-24.2283,,,,
04_S6,04/05/2023,16:59:45.900,0.0957,-0.0447,1.0232,-2.8152,3.7537,1.1978,8.1734,-29.4826,-22.4769,,,,
04_S6,04/05/2023,16:59:46.000,0.0000,0.0000,0.0000,0.0000,0.0000,0.0000,0.0000,0.0000,0.0000,Inactive,,21,Power off command received.
