TagID,Date,Time,accX,accY,accZ,gyroX,gyroY,gyroZ,compX,compY,compZ,Activity,Depth,Temp. (?C),Metadata
04_S8,04/05/2023,16:59:14.000,-0.0496,-0.1030,-0.9280,-22.3389,2.4643,2.7161,28.4610,-52.9812,-34.8829,Active,8.9288463863033,-368.68,
04_S8,04/05/2023,16:59:14.100,-0.0393,-0.0259,-0.9724,-54.9927,8.2245,8.9645,27.4393,-53.1271,-34.1531,,,,
04_S8,04/05/2023,16:59:14.200,-0.0320,0.0625,-0.9697,-57.1518,-2.2049,1.8005,23.6445,-53.1271,-33.2774,,,,
04_S8,04/05/2023,16:59:14.300,-0.0542,0.1208,-0.9763,-44.3802,-9.1476,-12.0544,19.2659,-52.5433,-33.5693,,,,
04_S8,04/05/2023,16:59:14.400,-0.0623,0.1643,-0.9639,-41.6260,-3.4714,-9.2926,19.2659,-52.5433,-33.5693,,,,
04_S8,04/05/2023,16:59:14.500,-0.0706,0.2080,-0.9512,-38.8718,2.2049,-6.5308,19.2659,-52.5433,-33.5693,,,,
04_S8,04/05/2023,16:59:14.600,-0.0439,0.2686,-0.9653,-36.7203,10.9863,-0.2670,17.0766,-52.6892,-33.7153,,,,
04_S8,04/05/2023,16:59:14.700,-0.0471,0.3372,-0.9324,-40.9698,4.1504,1.5030,14.7413,-52.9812,-31.9638,,,,
04_S8,04/05/2023,16:59:14.800,-0.0593,0.4138,-0.8977,-49.4766,-5.2948,-0.4883,12.1141,-52.9812,-31.3800,,,,
04_S8,04/05/2023,16:59:14.900,-0.0725,0.4829,-0.8508,-46.3562,-8.6899,-0.8163,8.4653,-53.1271,-28.8988,,,,
04_S8,04/05/2023,16:59:15.000,-0.0747,0.5425,-0.8159,-40.3061,-3.2349,3.8300,8.4653,-53.1271,-28.8988,Inactive,0,24.31,
04_S8,04/05/2023,16:59:15.100,-0.0847,0.5964,-0.7839,-36.9568,-1.5335,3.8071,6.5679,-52.6892,-26.7095,,,,
04_S8,04/05/2023,16:59:15.200,-0.0769,0.6536,-0.7317,-41.9083,-1.9989,6.3095,4.5246,-52.3973,-27.5852,,,,
04_S8,04/05/2023,16:59:15.300,-0.0732,0.7219,-0.6726,-57.9529,4.9515,6.2790,2.1893,-52.6892,-23.4985,,,,
04_S8,04/05/2023,16:59:15.400,-0.0681,0.7686,-0.6375,-33.1421,5.6229,1.1597,0.4379,-52.3973,-22.3309,,,,
04_S8,04/05/2023,16:59:15.500,-0.0696,0.8086,-0.6011,-32.4249,3.3646,2.2202,0.4379,-52.3973,-22.3309,,,,
04_S8,04/05/2023,16:59:15.600,-0.0452,0.8538,-0.5210,-55.2673,9.6054,2.7618,0.1460,-53.2731,-19.9956,,,,
04_S8,04/05/2023,16:59:15.700,-0.0486,0.9053,-0.4392,-54.6112,3.9825,1.0071,-1.7514,-54.2947,-15.4711,,,,
04_S8,04/05/2023,16:59:15.800,-0.0469,0.9189,-0.3779,-36.8881,2.4033,-2.2430,-3.7948,-53.1271,-12.8439,,,,
04_S8,04/05/2023,16:59:15.900,-0.0583,0.9553,-0.3333,-31.3492,5.6229,-2.0142,-3.5029,-53.1271,-10.2168,,,,
04_S8,04/05/2023,16:59:16.000,-0.0505,0.9624,-0.2617,-31.7917,4.5319,-0.2518,-3.5029,-53.1271,-10.2168,Inactive,0,24.36,
04_S8,04/05/2023,16:59:16.100,-0.0774,0.9685,-0.2188,-54.1992,4.8676,-13.7024,-4.8165,-54.1488,-8.6113,,,,
04_S8,04/05/2023,16:59:16.200,-0.1040,0.9900,-0.0325,-76.7517,-8.9645,-11.6577,-5.6922,-52.6892,-2.4812,,,,
04_S8,04/05/2023,16:59:16.300,-0.0972,1.0054,0.0151,-35.7971,5.9509,0.7858,-4.3786,-51.0838,0.0000,,,,
04_S8,04/05/2023,16:59:16.400,-0.1047,0.9868,0.0400,-35.3012,9.6130,-0.7553,-5.6922,-52.1054,3.0650,,,,
04_S8,04/05/2023,16:59:16.500,-0.0925,0.9907,0.1702,-48.7442,4.9744,8.4000,-5.6922,-52.1054,3.0650,,,,
04_S8,04/05/2023,16:59:16.600,-0.0793,0.9998,0.1975,-22.9340,1.4114,2.7695,-3.2110,-51.6676,6.1301,,,,
04_S8,04/05/2023,16:59:16.700,-0.0928,0.9700,0.2251,-32.8293,-2.4033,-3.0746,-3.5029,-53.4190,7.5896,,,,
04_S8,04/05/2023,16:59:16.800,-0.0906,0.9524,0.3354,-39.5813,-13.3209,-2.6703,-2.4812,-51.8135,8.9032,,,,
04_S8,04/05/2023,16:59:16.900,-0.0830,0.9585,0.3652,-29.8996,-1.7853,-0.6561,-2.4812,-51.8135,8.9032,,,,
04_S8,04/05/2023,16:59:17.000,-0.0857,0.9417,0.4272,-33.1268,-2.8229,2.4567,-2.6272,-52.5433,10.8006,Inactive,0,24.37,
04_S8,04/05/2023,16:59:17.100,-0.0759,0.9326,0.4619,-23.7122,12.4207,11.0550,-0.2919,-52.8352,12.5520,,,,
04_S8,04/05/2023,16:59:17.200,-0.0698,0.8933,0.4922,-29.7775,17.2195,11.2915,1.4595,-53.4190,16.3468,,,,
04_S8,04/05/2023,16:59:17.300,-0.0654,0.8435,0.5303,-24.5590,2.0065,15.3809,2.4812,-53.5650,17.9523,,,,
04_S8,04/05/2023,16:59:17.400,0.0081,0.8855,0.5757,-17.0670,-19.9585,27.3056,2.4812,-53.5650,17.9523,,,,
04_S8,04/05/2023,16:59:17.500,0.0234,0.8462,0.6206,-37.1857,5.4855,2.7924,3.5029,-55.7543,17.5144,,,,
04_S8,04/05/2023,16:59:17.600,0.0071,0.7485,0.6975,-68.7866,10.2997,2.9907,6.7139,-54.0028,19.8497,,,,
04_S8,04/05/2023,16:59:17.700,0.0027,0.6584,0.7805,-80.9402,14.8773,12.9089,9.6329,-54.5866,24.5202,,,,
04_S8,04/05/2023,16:59:17.800,0.0088,0.5847,0.8660,-54.9393,-6.0196,6.5460,14.8873,-55.4624,25.9797,,,,
04_S8,04/05/2023,16:59:17.900,0.0442,0.5137,0.9111,-49.4308,-20.0729,-8.1787,14.8873,-55.4624,25.9797,,,,
04_S8,04/05/2023,16:59:18.000,0.0603,0.4683,0.9148,-25.5203,-5.7602,-3.1128,16.6387,-56.6300,26.8555,Inactive,0,24.4,
04_S8,04/05/2023,16:59:18.100,0.0442,0.4248,0.9463,-30.6625,6.9046,-7.2174,17.2225,-56.3381,26.5636,,,,
04_S8,04/05/2023,16:59:18.200,-0.0386,0.3540,1.0127,-52.6657,41.6183,-7.8278,21.4552,-54.1488,27.8771,,,,
04_S8,04/05/2023,16:59:18.300,-0.0242,0.2803,1.0017,-52.0096,2.9221,-0.8545,24.3743,-54.7326,29.6286,,,,
04_S8,04/05/2023,16:59:18.400,-0.0205,0.1699,1.0454,-50.8270,-6.4392,-3.9520,24.3743,-54.7326,29.6286,,,,
04_S8,04/05/2023,16:59:18.500,-0.0090,0.0691,1.0735,-64.9261,5.2490,-2.8992,26.4176,-53.5650,27.8771,,,,
04_S8,04/05/2023,16:59:18.600,-0.0200,0.0232,1.0366,-29.9149,4.8981,-2.5177,31.2341,-54.8786,29.7745,,,,
04_S8,04/05/2023,16:59:18.700,-0.0298,-0.0557,1.0317,-31.4636,-0.8774,-3.6392,32.6936,-53.1271,28.6069,,,,
04_S8,04/05/2023,16:59:18.800,-0.0122,-0.0820,1.0151,-32.1274,-2.3651,-2.3422,33.4234,-55.3164,28.1690,,,,
04_S8,04/05/2023,16:59:18.900,-0.0037,-0.2180,1.0371,-71.6171,-1.4114,-3.9673,33.4234,-55.3164,28.1690,,,,
04_S8,04/05/2023,16:59:19.000,0.0098,-0.3813,0.9805,-47.2870,-4.0512,3.4103,42.1806,-55.0245,25.5419,Inactive,0,24.39,
04_S8,04/05/2023,16:59:19.100,-0.0071,-0.4722,0.9104,-59.4177,6.1798,6.1874,45.9754,-55.0245,23.7904,,,,
04_S8,04/05/2023,16:59:19.200,-0.0083,-0.5449,0.8838,-48.7137,4.6921,2.4948,48.8945,-54.1488,21.1633,,,,
04_S8,04/05/2023,16:59:19.300,-0.0068,-0.6230,0.7998,-51.1551,3.3493,-0.1373,48.8945,-54.1488,21.1633,,,,
04_S8,04/05/2023,16:59:19.400,-0.0134,-0.7017,0.7578,-60.4172,1.6251,-0.0992,50.3540,-54.1488,19.1199,,,,
04_S8,04/05/2023,16:59:19.500,-0.0090,-0.7432,0.6875,-46.5088,3.7766,1.4343,54.0028,-54.8786,15.4711,,,,
04_S8,04/05/2023,16:59:19.600,-0.0129,-0.8013,0.6167,-55.3436,-0.3662,-1.6022,55.3164,-54.4407,12.6980,,,,
04_S8,04/05/2023,16:59:19.700,0.0068,-0.8677,0.5413,-74.2493,-6.0654,-3.1738,56.9219,-54.2947,7.0058,,,,
04_S8,04/05/2023,16:59:19.800,0.0164,-0.9192,0.3428,-95.6955,-3.3875,-5.0278,56.9219,-54.2947,7.0058,,,,
04_S8,04/05/2023,16:59:19.900,0.0518,-0.9971,0.2378,-66.7343,-8.8654,-8.8272,58.2355,-55.3164,1.3136,,,,
04_S8,04/05/2023,16:59:20.000,0.0493,-0.9900,0.1833,-35.5225,-4.3945,-1.3123,58.0895,-56.9219,-1.4595,Inactive,0,24.38,
04_S8,04/05/2023,16:59:20.100,0.0349,-0.9810,0.0974,-33.1039,0.0534,9.5062,58.2355,-56.4840,-3.9407,,,,
04_S8,04/05/2023,16:59:20.200,0.0061,-0.9719,0.0730,-31.9443,-1.0452,10.4218,58.2355,-56.4840,-3.9407,,,,
04_S8,04/05/2023,16:59:20.300,0.0095,-1.0056,-0.0537,-78.8574,-2.4872,11.4136,56.7760,-55.3164,-7.4436,,,,
04_S8,04/05/2023,16:59:20.400,-0.0183,-0.9624,-0.2036,-74.4629,-1.9836,10.4370,57.5057,-53.7109,-12.8439,,,,
04_S8,04/05/2023,16:59:20.500,-0.0552,-0.8850,-0.2942,-68.8171,-0.3128,2.0065,55.4624,-53.1271,-17.8063,,,,
04_S8,04/05/2023,16:59:20.600,0.0088,-0.9290,-0.3962,-46.2646,4.2877,-15.1367,52.9812,-54.4407,-20.2876,,,,
04_S8,04/05/2023,16:59:20.700,0.0078,-0.8757,-0.4348,-30.4642,-2.8687,-8.9264,52.9812,-54.4407,-20.2876,,,,
04_S8,04/05/2023,16:59:20.800,0.0198,-0.8147,-0.4937,-41.6794,0.0381,-11.1694,51.9595,-54.2947,-21.8930,,,,
04_S8,04/05/2023,16:59:20.900,0.0486,-0.7761,-0.5898,-61.1496,-0.1144,-14.1907,48.6025,-53.8569,-25.2500,,,,
04_S8,04/05/2023,16:59:21.000,0.0356,-0.7383,-0.6475,-43.6401,-4.6997,4.8904,46.2673,-55.0245,-28.1690,Inactive,0,24.41,
04_S8,04/05/2023,16:59:21.100,0.0227,-0.6919,-0.6863,-35.4462,-0.9842,6.3858,44.2239,-55.3164,-28.1690,,,,
04_S8,04/05/2023,16:59:21.200,0.0188,-0.6472,-0.7061,-19.3176,1.0147,4.2038,44.2239,-55.3164,-28.1690,,,,
04_S8,04/05/2023,16:59:21.300,0.0027,-0.6206,-0.7444,-27.5803,-3.4409,7.9117,44.3699,-53.7109,-29.4826,,,,
04_S8,04/05/2023,16:59:21.400,-0.0144,-0.5793,-0.7935,-44.4031,-0.3128,11.8561,40.8670,-54.8786,-31.2341,,,,
04_S8,04/05/2023,16:59:21.500,-0.0212,-0.4963,-0.8435,-60.0815,6.2408,16.3574,38.9696,-53.8569,-33.1315,,,,
04_S8,04/05/2023,16:59:21.600,-0.0515,-0.3982,-0.8833,-53.9398,-7.7896,14.7400,36.4884,-52.2514,-34.1531,,,,
04_S8,04/05/2023,16:59:21.700,-0.0811,-0.3403,-0.9128,-43.1519,-16.8381,4.3259,36.4884,-52.2514,-34.1531,,,,
04_S8,04/05/2023,16:59:21.800,-0.0864,-0.2993,-0.9255,-22.5601,3.0441,3.1357,32.4017,-51.9595,-35.3208,,,,
04_S8,04/05/2023,16:59:21.900,-0.0686,-0.2463,-0.9368,-27.9160,12.1536,6.6986,31.6719,-52.6892,-35.4667,,,,
04_S8,04/05/2023,16:59:22.000,-0.0579,-0.1941,-0.9438,-28.8391,11.2457,9.3384,30.3583,-54.2947,-35.9046,Inactive,0,24.42,
04_S8,04/05/2023,16:59:22.100,-0.0815,-0.1523,-0.9622,-34.1339,-5.0278,10.8261,27.5852,-53.2731,-36.0505,,,,
04_S8,04/05/2023,16:59:22.200,-0.0635,-0.1165,-0.9756,-21.4844,-6.2027,3.2349,27.5852,-53.2731,-36.0505,,,,
04_S8,04/05/2023,16:59:22.300,-0.0942,-0.0405,-0.9766,-34.1339,5.1270,9.4070,28.0231,-52.5433,-36.1965,,,,
04_S8,04/05/2023,16:59:22.400,-0.0862,0.0059,-0.9792,-37.9410,4.0665,7.5455,24.5202,-52.5433,-36.4884,,,,
04_S8,04/05/2023,16:59:22.500,-0.0601,0.0610,-0.9602,-25.5966,12.8860,3.5477,22.6228,-54.1488,-35.1748,,,,
04_S8,04/05/2023,16:59:22.600,-0.0537,0.0977,-0.9751,-24.1547,6.6605,0.5188,21.3092,-53.1271,-35.9046,,,,
04_S8,04/05/2023,16:59:22.700,-0.0452,0.1443,-0.9724,-29.6326,6.3171,-2.4109,21.3092,-53.1271,-35.9046,,,,
04_S8,04/05/2023,16:59:22.800,-0.0471,0.1777,-0.9517,-16.7313,-0.3128,-4.0359,19.7037,-53.5650,-33.7153,,,,
04_S8,04/05/2023,16:59:22.900,-0.0615,0.1990,-0.9565,-11.2762,-1.7471,-7.3395,18.3902,-53.7109,-33.2774,,,,
04_S8,04/05/2023,16:59:23.000,-0.0710,0.2278,-0.9587,-19.1650,-0.8011,-3.9444,18.3902,-53.1271,-34.1531,Inactive,0,24.45,
04_S8,04/05/2023,16:59:23.100,-0.0791,0.2703,-0.9658,-37.9105,-5.7144,1.1292,13.5737,-52.1054,-33.7153,,,,
04_S8,04/05/2023,16:59:23.200,-0.0911,0.3445,-0.9377,-41.0309,-5.2261,4.5929,13.5737,-52.1054,-33.7153,,,,
04_S8,04/05/2023,16:59:23.300,-0.0964,0.3928,-0.8948,-25.7416,-3.1662,4.8676,12.1141,-53.2731,-33.1315,,,,
04_S8,04/05/2023,16:59:23.400,-0.0964,0.4392,-0.8760,-28.0991,1.8082,2.2430,11.3844,-50.7919,-31.8179,,,,
04_S8,04/05/2023,16:59:23.500,-0.0894,0.4832,-0.8516,-28.2669,6.4240,-2.4033,10.5087,-51.9595,-30.9422,,,,
04_S8,04/05/2023,16:59:23.600,-0.0896,0.5203,-0.8279,-32.8445,5.2261,-4.6539,7.0058,-51.0838,-29.1907,,,,
04_S8,04/05/2023,16:59:23.700,-0.0891,0.5669,-0.8093,-30.4337,5.5847,-3.0823,7.0058,-51.0838,-29.1907,,,,
04_S8,04/05/2023,16:59:23.800,-0.0942,0.6362,-0.7656,-44.5709,3.7155,-7.0877,5.9841,-52.3973,-27.5852,,,,
04_S8,04/05/2023,16:59:23.900,-0.1074,0.6719,-0.7141,-38.1546,2.1744,-7.8049,3.5029,-51.9595,-25.1040,,,,
04_S8,04/05/2023,16:59:24.000,-0.1089,0.7280,-0.6672,-42.0151,2.9831,-1.3504,0.7298,-52.3973,-22.9147,Inactive,0,24.45,
04_S8,04/05/2023,16:59:24.100,-0.1003,0.7798,-0.6160,-47.0200,5.8212,0.5646,0.7298,-52.3973,-22.9147,,,,
04_S8,04/05/2023,16:59:24.200,-0.0793,0.8313,-0.5708,-40.0391,9.9716,2.7466,0.7298,-52.3973,-22.9147,,,,
04_S8,04/05/2023,16:59:24.300,-0.0930,0.8787,-0.4766,-52.5208,2.5787,-5.0583,-2.4812,-50.9378,-17.0766,,,,
04_S8,04/05/2023,16:59:24.400,-0.1187,0.9336,-0.4241,-63.3774,1.4572,-15.3198,-4.5246,-50.3540,-14.4494,,,,
04_S8,04/05/2023,16:59:24.500,-0.1331,0.9382,-0.2886,-52.5055,-0.9384,-2.3956,-3.9407,-50.3540,-8.6113,,,,
04_S8,04/05/2023,16:59:24.600,-0.1018,0.9653,-0.2310,-50.3998,10.1318,15.6708,-3.9407,-50.3540,-8.6113,,,,
04_S8,04/05/2023,16:59:24.700,-0.0667,0.9966,-0.1375,-47.3022,-0.6638,18.6081,-4.6705,-51.6676,-5.5462,,,,
04_S8,04/05/2023,16:59:24.800,-0.0610,1.0024,-0.0730,-41.0004,2.2659,6.8359,-5.4003,-53.5650,-4.5246,,,,
04_S8,04/05/2023,16:59:24.900,-0.0415,1.0295,0.0273,-52.3911,1.2131,9.3307,-4.8165,-53.2731,-0.7298,,,,
04_S8,04/05/2023,16:59:25.000,-0.0476,0.9983,0.0603,-21.9345,2.8915,-0.2213,-3.7948,-53.7109,3.7948,Inactive,0,24.49,
04_S8,04/05/2023,16:59:25.100,-0.0325,1.0156,0.1191,-36.0947,6.2866,6.5460,-3.7948,-53.7109,3.7948,,,,
04_S8,04/05/2023,16:59:25.200,-0.0364,0.9719,0.1897,-37.1094,3.1967,3.3417,-4.8165,-53.5650,4.8165,,,,
04_S8,04/05/2023,16:59:25.300,-0.0059,1.0237,0.2524,-42.7780,-1.5945,11.2839,-1.7514,-54.2947,8.4653,,,,
04_S8,04/05/2023,16:59:25.400,-0.0259,0.9670,0.3088,-29.5410,-6.6376,-4.9286,-1.0217,-54.4407,10.9465,,,,
04_S8,04/05/2023,16:59:25.500,-0.0256,0.9329,0.3557,-23.0865,-0.9308,-5.6610,-1.0217,-54.1488,12.6980,,,,
04_S8,04/05/2023,16:59:25.600,-0.0234,0.9485,0.3801,-22.8043,7.3013,3.1433,-1.0217,-54.1488,12.6980,,,,
04_S8,04/05/2023,16:59:25.700,-0.0215,0.9443,0.4109,-21.0648,6.7978,1.2131,0.1460,-53.8569,13.5737,,,,
04_S8,04/05/2023,16:59:25.800,-0.0210,0.9241,0.4473,-21.2784,3.7537,2.8000,1.0217,-53.5650,14.1575,,,,
04_S8,04/05/2023,16:59:25.900,-0.0176,0.9053,0.4734,-18.2037,2.5024,3.9902,1.1676,-54.0028,15.1792,,,,
04_S8,04/05/2023,16:59:26.000,-0.0171,0.8865,0.5134,-24.6429,8.3237,-2.4338,3.3569,-54.7326,15.9089,Inactive,0,24.49,
04_S8,04/05/2023,16:59:26.100,-0.0642,0.8513,0.5669,-45.1660,10.8185,-10.7803,3.3569,-54.7326,15.9089,,,,
04_S8,04/05/2023,16:59:26.200,-0.0579,0.8237,0.6123,-32.7530,1.6251,-2.3041,3.5029,-52.2514,19.2659,,,,
04_S8,04/05/2023,16:59:26.300,-0.0574,0.7908,0.6665,-34.4849,-4.4937,-4.9438,4.6705,-53.1271,20.4335,,,,
04_S8,04/05/2023,16:59:26.400,-0.0391,0.7268,0.7173,-38.4216,-9.3765,-7.0496,7.4436,-52.9812,22.3309,,,,
04_S8,04/05/2023,16:59:26.500,-0.0769,0.6873,0.7742,-47.0657,-2.5177,-12.7792,8.6113,-52.6892,24.6662,,,,
04_S8,04/05/2023,16:59:26.600,-0.0728,0.6548,0.8113,-27.2751,0.1602,-4.2877,8.6113,-52.6892,24.6662,,,,
04_S8,04/05/2023,16:59:26.700,-0.0640,0.6025,0.8311,-26.5427,-4.4174,-0.5798,10.5087,-52.8352,25.1040,,,,
04_S8,04/05/2023,16:59:26.800,-0.0586,0.5601,0.8560,-35.1257,3.5248,-5.9509,12.5520,-53.4190,26.2716,,,,
04_S8,04/05/2023,16:59:26.900,-0.0715,0.5237,0.9019,-24.8642,1.2512,-2.6627,12.9899,-52.9812,26.7095,,,,
04_S8,04/05/2023,16:59:27.000,-0.0857,0.4824,0.9197,-32.9742,9.2850,-2.5787,16.2008,-52.9812,28.4610,Inactive,0,24.49,
04_S8,04/05/2023,16:59:27.100,-0.0872,0.4382,0.9465,-27.7100,2.7084,-1.5869,16.2008,-52.9812,28.4610,,,,
04_S8,04/05/2023,16:59:27.200,-0.0762,0.3955,0.9543,-24.4751,2.0905,-0.3510,16.9306,-51.9595,29.1907,,,,
04_S8,04/05/2023,16:59:27.300,-0.0955,0.3528,0.9714,-27.9846,4.7913,-3.5858,18.5361,-52.1054,28.4610,,,,
04_S8,04/05/2023,16:59:27.400,-0.1011,0.3135,0.9856,-23.3002,6.1874,-1.8234,19.9956,-51.8135,30.7962,,,,
04_S8,04/05/2023,16:59:27.500,-0.1033,0.2722,1.0012,-27.3361,-0.5722,-6.1111,21.4552,-51.8135,29.9205,,,,
04_S8,04/05/2023,16:59:27.600,-0.0835,0.2097,1.0054,-36.2091,-2.4033,-7.0419,21.4552,-51.8135,29.9205,,,,
04_S8,04/05/2023,16:59:27.700,-0.1042,0.1597,1.0320,-31.7154,3.5324,-6.6528,24.8121,-51.3757,32.4017,,,,
04_S8,04/05/2023,16:59:27.800,-0.1089,0.1006,1.0330,-24.8718,4.3640,-4.2953,25.3959,-51.6676,30.9422,,,,
04_S8,04/05/2023,16:59:27.900,-0.1272,0.0657,1.0376,-30.5557,7.6141,-5.1041,27.5852,-51.5216,31.0881,,,,
04_S8,04/05/2023,16:59:28.000,-0.1238,-0.0234,0.9900,-50.4456,2.3651,-1.8387,31.9638,-51.5216,31.9638,Inactive,0,24.5,
04_S8,04/05/2023,16:59:28.100,-0.0715,-0.1587,1.0669,-85.0220,-12.6038,8.9264,31.9638,-51.5216,31.9638,,,,
04_S8,04/05/2023,16:59:28.200,-0.1006,-0.2476,1.0002,-37.2620,-0.0534,-3.8834,36.9263,-52.9812,28.7529,,,,
04_S8,04/05/2023,16:59:28.300,-0.1135,-0.2925,0.9993,-48.7518,13.1836,8.7738,38.6777,-51.8135,29.6286,,,,
04_S8,04/05/2023,16:59:28.400,-0.1492,-0.3801,0.8889,-76.5915,6.6147,11.7188,44.2239,-50.9378,27.2933,,,,
04_S8,04/05/2023,16:59:28.500,-0.0588,-0.6321,0.8130,-132.1869,-24.6658,-9.1782,44.2239,-50.9378,27.2933,,,,
04_S8,04/05/2023,16:59:28.600,-0.0430,-0.6941,0.7463,-53.6499,-15.7394,-5.9204,50.4999,-53.1271,20.4335,,,,
04_S8,04/05/2023,16:59:28.700,-0.0496,-0.7527,0.6919,-48.4543,3.7918,-1.9608,53.8569,-55.0245,17.3685,,,,
04_S8,04/05/2023,16:59:28.800,-0.0613,-0.8132,0.6191,-66.5054,6.7749,10.7422,55.4624,-53.1271,14.0115,,,,
04_S8,04/05/2023,16:59:28.900,-0.0808,-0.8647,0.5325,-51.3687,3.6240,12.3215,56.7760,-51.5216,11.2384,,,,
04_S8,04/05/2023,16:59:29.000,-0.0913,-0.8892,0.4995,-28.1601,-5.3482,10.0708,56.7760,-51.5216,11.2384,Inactive,0,24.52,
04_S8,04/05/2023,16:59:29.100,-0.1106,-0.8997,0.3992,-45.2881,-4.4479,15.8463,58.0895,-51.3757,8.4653,,,,
04_S8,04/05/2023,16:59:29.200,-0.1191,-0.8713,0.2886,-75.6607,-4.7379,1.1749,60.4248,-51.0838,5.8381,,,,
04_S8,04/05/2023,16:59:29.300,-0.0718,-1.0154,0.1858,-76.1414,4.9973,-16.3345,59.8410,-51.9595,-1.4595,,,,
04_S8,04/05/2023,16:59:29.400,-0.0859,-0.9985,0.1052,-39.5737,4.1809,2.6321,59.8410,-52.5433,-3.7948,,,,
04_S8,04/05/2023,16:59:29.500,-0.1001,-0.9839,0.0061,-30.2963,-3.0518,9.0485,59.8410,-52.5433,-3.7948,,,,
04_S8,04/05/2023,16:59:29.600,-0.1111,-0.9636,-0.0066,-31.8146,-4.5242,8.2703,59.8410,-51.9595,-6.4220,,,,
04_S8,04/05/2023,16:59:29.700,-0.1257,-0.9622,-0.0742,-45.2652,-5.6152,3.6392,59.6950,-50.9378,-9.7789,,,,
04_S8,04/05/2023,16:59:29.800,-0.1121,-0.9851,-0.1726,-46.8521,-3.4561,-1.9150,59.5491,-50.4999,-12.5520,,,,
04_S8,04/05/2023,16:59:29.900,-0.1299,-0.9319,-0.1936,-40.9241,-5.3940,2.9221,57.5057,-52.2514,-15.7630,,,,
04_S8,04/05/2023,16:59:30.000,-0.1118,-0.9612,-0.3237,-45.3033,5.5161,-1.3199,57.5057,-52.2514,-15.7630,Inactive,0,24.5,
04_S8,04/05/2023,16:59:30.100,-0.1321,-0.8809,-0.3596,-40.2603,-4.4708,5.9280,56.6300,-50.7919,-18.9740,,,,
04_S8,04/05/2023,16:59:30.200,-0.1365,-0.8601,-0.4133,-35.4233,-7.5760,3.0670,55.1705,-49.6242,-21.8930,,,,
04_S8,04/05/2023,16:59:30.300,-0.1423,-0.8384,-0.4814,-42.7628,-1.8768,-1.6708,53.8569,-50.6459,-24.0823,,,,
04_S8,04/05/2023,16:59:30.400,-0.1313,-0.7886,-0.5537,-42.1219,2.7313,-3.3798,51.8135,-50.9378,-26.1257,,,,
04_S8,04/05/2023,16:59:30.500,-0.1306,-0.7539,-0.6003,-46.5393,-3.8452,-6.4697,51.8135,-50.9378,-26.1257,,,,
04_S8,04/05/2023,16:59:30.600,-0.1392,-0.7163,-0.6597,-47.0810,-6.9351,-2.9831,48.1647,-50.4999,-29.1907,,,,
04_S8,04/05/2023,16:59:30.700,-0.1477,-0.6589,-0.6941,-34.4315,-4.9820,0.7706,45.6835,-49.1864,-31.3800,,,,
04_S8,04/05/2023,16:59:30.800,-0.1492,-0.6411,-0.7224,-19.9280,-1.2054,0.9232,44.9537,-49.3323,-31.8179,,,,
04_S8,04/05/2023,16:59:30.900,-0.1614,-0.6079,-0.7388,-20.6528,-5.1270,4.9820,43.3482,-49.4783,-33.4234,,,,
04_S8,04/05/2023,16:59:31.000,-0.1694,-0.5732,-0.7617,-21.7361,3.3112,8.0872,43.3482,-49.4783,-33.4234,Inactive,0,24.48,
04_S8,04/05/2023,16:59:31.100,-0.1672,-0.5381,-0.7993,-38.2233,15.7623,19.3634,42.7644,-49.4783,-33.4234,,,,
04_S8,04/05/2023,16:59:31.200,-0.1775,-0.4692,-0.8291,-25.5356,6.5536,12.2528,40.2832,-48.7485,-35.0289,,,,
04_S8,04/05/2023,16:59:31.300,-0.1790,-0.4595,-0.8516,-20.3400,3.3264,7.0038,39.9913,-49.0404,-37.3641,,,,
04_S8,04/05/2023,16:59:31.400,-0.1804,-0.4343,-0.8682,-15.8157,4.5624,0.6943,38.0939,-49.1864,-34.8829,,,,
04_S8,04/05/2023,16:59:31.500,-0.1555,-0.4009,-0.8743,-17.7994,9.2697,-0.9842,38.0939,-49.1864,-34.8829,,,,
04_S8,04/05/2023,16:59:31.600,-0.1516,-0.3770,-0.8872,-22.4991,5.8899,2.6932,37.0722,-50.4999,-36.1965,,,,
04_S8,04/05/2023,16:59:31.700,-0.1567,-0.3350,-0.9126,-23.3765,5.8517,4.2419,35.3208,-50.2080,-35.3208,,,,
04_S8,04/05/2023,16:59:31.800,-0.1365,-0.2878,-0.9153,-27.3514,9.0790,7.6141,34.2991,-50.6459,-35.4667,,,,
04_S8,04/05/2023,16:59:31.900,-0.1514,-0.2236,-0.9348,-32.3639,1.3046,8.0109,32.6936,-49.6242,-35.9046,,,,
04_S8,04/05/2023,16:59:32.000,-0.1489,-0.1875,-0.9421,-28.6484,3.4332,5.9662,32.6936,-49.6242,-35.9046,Inactive,0,24.55,
04_S8,04/05/2023,16:59:32.100,-0.1680,-0.1465,-0.9707,-24.0631,0.6714,1.1826,29.9205,-49.4783,-36.0505,,,,
04_S8,04/05/2023,16:59:32.200,-0.1501,-0.1067,-0.9702,-21.1639,0.8850,1.1673,28.4610,-50.3540,-36.9263,,,,
04_S8,04/05/2023,16:59:32.300,-0.1526,-0.0483,-0.9602,-30.5634,13.0920,2.5711,26.4176,-50.6459,-36.0505,,,,
04_S8,04/05/2023,16:59:32.400,-0.1057,-0.0054,-0.9521,-32.5546,15.0681,4.0436,26.4176,-50.6459,-36.0505,,,,
04_S8,04/05/2023,16:59:32.500,-0.1177,0.0532,-0.9763,-32.3029,2.9373,9.1400,24.5202,-51.0838,-36.1965,,,,
04_S8,04/05/2023,16:59:32.600,-0.1147,0.1274,-0.9570,-31.3110,-1.2665,8.6060,22.3309,-50.9378,-36.0505,,,,
04_S8,04/05/2023,16:59:32.700,-0.1189,0.1753,-0.9543,-37.1170,-0.9995,8.3160,21.0173,-51.9595,-36.4884,,,,
04_S8,04/05/2023,16:59:32.800,-0.1331,0.2124,-0.9680,-33.3710,-1.5030,7.4005,17.9523,-52.6892,-35.4667,,,,
04_S8,04/05/2023,16:59:32.900,-0.1343,0.2749,-0.9568,-19.1803,-2.9449,-1.5717,17.9523,-52.6892,-35.4667,,,,
04_S8,04/05/2023,16:59:33.000,-0.1514,0.3230,-0.8918,-45.0592,-14.3204,-11.3907,16.9306,-49.6242,-35.9046,Inactive,0,24.56,
04_S8,04/05/2023,16:59:33.100,-0.1733,0.4167,-0.8750,-59.0363,0.7935,4.9896,12.8439,-49.3323,-34.1531,,,,
04_S8,04/05/2023,16:59:33.200,-0.1531,0.4919,-0.8328,-44.1208,9.2697,6.5155,10.5087,-49.9161,-32.1098,,,,
04_S8,04/05/2023,16:59:33.300,-0.1421,0.5576,-0.8127,-49.3851,14.2822,3.3112,7.1517,-49.7702,-29.3367,,,,
04_S8,04/05/2023,16:59:33.400,-0.1162,0.6204,-0.7693,-43.1213,13.1454,-1.8158,7.1517,-49.7702,-29.3367,,,,
04_S8,04/05/2023,16:59:33.500,-0.1047,0.6758,-0.7454,-31.0440,15.4266,-3.2349,3.5029,-51.3757,-27.1474,,,,
04_S8,04/05/2023,16:59:33.600,-0.1072,0.7053,-0.6694,-49.6368,10.8719,-12.8784,2.9191,-51.0838,-25.9797,,,,
04_S8,04/05/2023,16:59:33.700,-0.1165,0.8037,-0.6875,-41.5955,8.8959,-6.5079,0.5838,-51.9595,-22.4769,,,,
04_S8,04/05/2023,16:59:33.800,-0.1279,0.8120,-0.4888,-79.9332,-0.3815,-8.4076,-3.0650,-50.3540,-16.7847,,,,
04_S8,04/05/2023,16:59:33.900,-0.1096,0.8877,-0.4702,-35.2936,6.9122,6.4316,-3.0650,-50.3540,-16.7847,,,,
04_S8,04/05/2023,16:59:34.000,-0.0999,0.9194,-0.4114,-38.1165,6.3019,2.4185,-2.7731,-52.6892,-15.3251,Inactive,0,24.59,
04_S8,04/05/2023,16:59:34.100,-0.1174,0.9265,-0.3481,-47.1344,8.8120,-4.8370,-2.9191,-51.0838,-12.8439,,,,
04_S8,04/05/2023,16:59:34.200,-0.1140,0.9810,-0.2000,-91.5298,8.0719,-3.0899,-5.5462,-50.7919,-6.7139,,,,
04_S8,04/05/2023,16:59:34.300,-0.1169,0.9900,-0.0481,-71.3043,3.6240,-4.4174,-5.2543,-50.7919,-0.5838,,,,
04_S8,04/05/2023,16:59:34.400,-0.1301,1.0054,0.0081,-50.6821,3.2730,-1.6251,-5.2543,-50.7919,-0.5838,,,,
04_S8,04/05/2023,16:59:34.500,-0.1208,1.0068,0.1240,-59.5932,-6.1722,3.9062,-5.2543,-51.3757,2.0434,,,,
04_S8,04/05/2023,16:59:34.600,-0.0886,0.9624,0.3005,-99.1135,-6.1111,9.7504,-3.3569,-51.8135,7.7355,,,,
04_S8,04/05/2023,16:59:34.700,-0.0864,0.9363,0.4077,-60.6232,1.0681,8.0643,-0.2919,-51.9595,11.9682,,,,
04_S8,04/05/2023,16:59:34.800,-0.0740,0.8911,0.4871,-61.5540,6.3782,8.1253,1.3136,-52.9812,15.9089,,,,
04_S8,04/05/2023,16:59:34.900,-0.0671,0.8857,0.5146,-20.8206,-0.4807,2.4109,1.3136,-52.9812,15.9089,,,,
04_S8,04/05/2023,16:59:35.000,-0.0605,0.8669,0.5762,-15.7471,-4.9973,0.2747,2.6272,-52.2514,15.7630,Inactive,0,24.58,
04_S8,04/05/2023,16:59:35.100,-0.0776,0.8123,0.5964,-41.2292,10.3073,3.9062,2.6272,-52.8352,18.6821,,,,
04_S8,04/05/2023,16:59:35.200,-0.0596,0.7825,0.6714,-51.1627,3.0212,12.7487,7.1517,-53.2731,19.9956,,,,
04_S8,04/05/2023,16:59:35.300,-0.0435,0.7502,0.7266,-32.9819,-1.4267,10.6277,7.1517,-52.9812,23.4985,,,,
04_S8,04/05/2023,16:59:35.400,-0.0588,0.6978,0.7209,-12.3367,9.8343,-5.0888,7.1517,-52.9812,23.4985,,,,
04_S8,04/05/2023,16:59:35.500,-0.0664,0.6785,0.7720,-27.9312,8.9111,-0.1678,8.1734,-52.8352,23.3526,,,,
04_S8,04/05/2023,16:59:35.600,-0.0625,0.6724,0.8223,-38.5437,4.1122,5.1346,11.3844,-51.3757,25.9797,,,,
04_S8,04/05/2023,16:59:35.700,-0.0640,0.6235,0.8503,-28.8544,3.0670,1.8997,12.2601,-53.1271,26.2716,,,,
04_S8,04/05/2023,16:59:35.800,-0.0728,0.5156,0.8660,-38.5284,6.6147,-13.3286,14.5954,-50.7919,27.7312,,,,
04_S8,04/05/2023,16:59:35.900,-0.0767,0.4709,0.9026,-40.8249,-6.5842,-19.3863,14.5954,-50.7919,27.7312,,,,
04_S8,04/05/2023,16:59:36.000,-0.0852,0.4285,0.9509,-33.9813,-14.2593,-12.3215,16.3468,-52.5433,28.6069,Inactive,0,24.56,
04_S8,04/05/2023,16:59:36.100,-0.0417,0.3828,0.9517,-31.0898,-5.7907,-8.2321,17.5144,-52.8352,28.6069,,,,
04_S8,04/05/2023,16:59:36.200,-0.0640,0.3284,0.9912,-35.4462,-1.0757,-7.2556,19.9956,-53.8569,29.9205,,,,
04_S8,04/05/2023,16:59:36.300,-0.0613,0.2632,1.0107,-31.4026,-4.5624,3.2196,22.0390,-54.1488,29.9205,,,,
04_S8,04/05/2023,16:59:36.400,-0.0398,0.2383,1.0139,-28.0914,4.3945,8.2245,22.0390,-54.1488,29.9205,,,,
04_S8,04/05/2023,16:59:36.500,-0.0591,0.1775,1.0271,-32.2723,3.4637,3.8834,24.9581,-52.3973,30.5043,,,,
04_S8,04/05/2023,16:59:36.600,-0.0530,0.1233,1.0303,-25.4288,2.5406,0.6866,27.0014,-53.2731,30.5043,,,,
04_S8,04/05/2023,16:59:36.700,-0.0481,0.1145,1.0388,-23.2086,3.4561,-6.1264,28.3150,-53.4190,30.0664,,,,
04_S8,04/05/2023,16:59:36.800,-0.0671,0.0420,1.0354,-24.0707,5.2185,-4.5090,28.3150,-53.4190,30.0664,,,,
04_S8,04/05/2023,16:59:36.900,-0.0510,0.0259,1.0364,-17.7155,-3.4866,-2.1896,29.4826,-51.3757,30.6503,,,,
04_S8,04/05/2023,16:59:37.000,-0.0439,0.0024,1.0413,-8.7814,-5.1804,-0.7019,29.9205,-54.1488,30.5043,Inactive,0,24.58,
04_S8,04/05/2023,16:59:37.100,-0.0293,0.0244,1.0452,1.4114,-3.9978,1.9608,30.5043,-53.5650,30.5043,,,,
04_S8,04/05/2023,16:59:37.200,-0.0217,-0.0273,1.0276,-16.2277,-3.6469,-2.9221,30.9422,-54.2947,28.8988,,,,
04_S8,04/05/2023,16:59:37.300,-0.0269,-0.0898,1.0391,-46.1884,1.8997,9.6207,30.9422,-54.2947,28.8988,,,,
04_S8,04/05/2023,16:59:37.400,-0.0222,-0.1731,1.0310,-44.4031,4.6158,13.4354,35.1748,-54.1488,29.0448,,,,
04_S8,04/05/2023,16:59:37.500,-0.0312,-0.2256,1.0266,-45.3796,2.1057,9.1324,37.6560,-55.4624,28.6069,,,,
04_S8,04/05/2023,16:59:37.600,-0.0454,-0.3032,0.9771,-43.7088,2.8229,5.8670,41.4508,-53.7109,26.2716,,,,
04_S8,04/05/2023,16:59:37.700,-0.0417,-0.3901,0.9651,-59.1049,0.7095,7.6599,45.6835,-52.9812,24.9581,,,,
04_S8,04/05/2023,16:59:37.800,-0.0596,-0.5242,0.8701,-92.1478,10.1929,12.3901,45.6835,-52.9812,24.9581,,,,
04_S8,04/05/2023,16:59:37.900,-0.0891,-0.6641,0.7739,-106.0257,11.5662,20.8969,51.0838,-51.9595,22.4769,,,,
04_S8,04/05/2023,16:59:38.000,-0.1255,-0.7922,0.6213,-98.1064,10.4828,14.8621,56.0462,-49.9161,15.1792,Inactive,0,24.59,
04_S8,04/05/2023,16:59:38.100,-0.1292,-0.8501,0.5476,-68.2678,0.4959,5.8060,57.9436,-50.3540,11.5303,,,,
04_S8,04/05/2023,16:59:38.200,-0.1172,-0.9097,0.4136,-71.6248,0.5341,-6.9046,59.6950,-50.6459,5.6922,,,,
04_S8,04/05/2023,16:59:38.300,-0.0847,-0.9194,0.3196,-57.5943,1.3504,-20.9808,59.6950,-50.6459,5.6922,,,,
04_S8,04/05/2023,16:59:38.400,-0.0237,-1.0098,0.2146,-68.4814,0.7477,-35.5606,59.9869,-50.9378,-0.7298,,,,
04_S8,04/05/2023,16:59:38.500,-0.0283,-0.9644,0.0215,-110.7101,7.5378,-0.2747,59.6950,-53.5650,-5.4003,,,,
04_S8,04/05/2023,16:59:38.600,-0.0142,-0.9692,-0.1550,-105.4153,-1.2360,0.2823,57.7976,-55.4624,-13.1358,,,,
04_S8,04/05/2023,16:59:38.700,-0.0173,-0.9453,-0.3337,-81.4438,-13.4125,-3.3798,55.3164,-54.1488,-19.9956,,,,
04_S8,04/05/2023,16:59:38.800,-0.0386,-0.8792,-0.4089,-77.8885,-11.5509,-2.7237,55.3164,-54.1488,-19.9956,,,,
04_S8,04/05/2023,16:59:38.900,-0.0085,-0.8396,-0.4961,-47.4167,-3.0441,-13.3438,53.7109,-54.0028,-23.3526,,,,
04_S8,04/05/2023,16:59:39.000,-0.0042,-0.7856,-0.5823,-61.5158,-5.3253,-17.7765,49.4783,-54.7326,-25.8338,Inactive,0,24.6,
04_S8,04/05/2023,16:59:39.100,0.0225,-0.7634,-0.6807,-53.9932,-8.2855,-4.4174,45.3916,-53.8569,-29.0448,,,,
04_S8,04/05/2023,16:59:39.200,-0.0110,-0.6750,-0.7019,-37.5671,5.7297,14.8849,44.8078,-53.8569,-31.0881,,,,
04_S8,04/05/2023,16:59:39.300,-0.0293,-0.6331,-0.7502,-36.8881,2.7237,14.2517,44.8078,-53.8569,-31.0881,,,,
04_S8,04/05/2023,16:59:39.400,-0.0259,-0.6060,-0.7773,-25.9094,5.3787,6.7444,41.5968,-52.6892,-31.9638,,,,
04_S8,04/05/2023,16:59:39.500,-0.0215,-0.5078,-0.8052,-42.8238,5.8136,12.5732,41.5968,-53.8569,-31.9638,,,,
04_S8,04/05/2023,16:59:39.600,-0.0405,-0.5061,-0.8428,-29.4266,-1.0681,9.3079,38.5318,-53.1271,-33.8612,,,,
04_S8,04/05/2023,16:59:39.700,-0.0454,-0.4426,-0.8606,-24.1623,-3.1433,3.0746,38.5318,-52.2514,-33.8612,,,,
04_S8,04/05/2023,16:59:39.800,-0.0471,-0.3879,-0.8896,-45.5399,6.5765,13.8168,38.5318,-52.2514,-33.8612,,,,
04_S8,04/05/2023,16:59:39.900,-0.0652,-0.3071,-0.9290,-42.7628,0.3815,7.6141,35.3208,-52.5433,-35.0289,,,,
04_S8,04/05/2023,16:59:40.000,-0.0566,-0.2559,-0.9375,-42.9688,11.1237,10.2463,32.2557,-53.8569,-35.7586,Inactive,0,24.62,
04_S8,04/05/2023,16:59:40.100,-0.0520,-0.1721,-0.9517,-41.6412,4.9515,9.3002,29.3367,-53.2731,-36.0505,,,,
04_S8,04/05/2023,16:59:40.200,-0.0420,-0.1040,-0.9551,-35.8658,0.9155,2.8915,27.2933,-52.1054,-36.3424,,,,
04_S8,04/05/2023,16:59:40.300,-0.0608,-0.0398,-0.9746,-36.7889,-0.4120,1.3809,27.2933,-52.1054,-36.3424,,,,
04_S8,04/05/2023,16:59:40.400,-0.0605,0.0447,-0.9661,-43.7088,3.8223,2.1591,25.1040,-52.5433,-35.0289,,,,
04_S8,04/05/2023,16:59:40.500,-0.0549,0.1299,-0.9551,-63.0951,-0.7629,3.0441,19.9956,-52.6892,-34.2991,,,,
04_S8,04/05/2023,16:59:40.600,-0.0554,0.2632,-0.9626,-70.8084,7.5226,5.3940,15.9089,-53.2731,-33.4234,,,,
04_S8,04/05/2023,16:59:40.700,-0.0576,0.3677,-0.9316,-69.0231,-1.6632,11.3525,15.9089,-53.2731,-33.4234,,,,
04_S8,04/05/2023,16:59:40.800,-0.0437,0.4658,-0.8655,-60.2036,3.5629,1.1597,13.5737,-53.5650,-32.2557,,,,
04_S8,04/05/2023,16:59:40.900,-0.0383,0.5977,-0.8296,-70.6482,9.9258,-6.9962,8.6113,-53.8569,-29.9205,,,,
04_S8,04/05/2023,16:59:41.000,-0.0488,0.6562,-0.6885,-78.1708,3.9215,-13.3667,5.1084,-52.9812,-24.9581,Inactive,0,24.62,
04_S8,04/05/2023,16:59:41.100,-0.0549,0.7581,-0.6211,-87.5931,1.5411,-5.0583,0.0000,-52.5433,-21.6011,,,,
04_S8,04/05/2023,16:59:41.200,-0.0901,0.8667,-0.4885,-93.7881,-15.1825,-5.8289,0.0000,-52.5433,-21.6011,,,,
04_S8,04/05/2023,16:59:41.300,-0.0784,0.9392,-0.3572,-68.3517,0.0534,-3.2425,-3.0650,-52.6892,-15.6170,,,,
04_S8,04/05/2023,16:59:41.400,-0.1194,1.0081,-0.2195,-107.0633,9.8877,-7.4005,-3.7948,-52.5433,-11.0925,,,,
04_S8,04/05/2023,16:59:41.500,-0.0986,0.9951,-0.1323,-83.2062,2.0752,3.4790,-4.9624,-51.3757,-4.6705,,,,
04_S8,04/05/2023,16:59:41.600,-0.0769,1.0166,0.1267,-119.4153,-1.7090,22.9263,-2.7731,-53.2731,5.9841,,,,
04_S8,04/05/2023,16:59:41.700,-0.0520,0.9458,0.2620,-50.9415,5.8212,-0.5035,-2.7731,-53.2731,5.9841,,,,
04_S8,04/05/2023,16:59:41.800,-0.0435,0.9431,0.3650,-77.0264,9.9564,16.4566,-2.4812,-52.9812,7.7355,,,,
04_S8,04/05/2023,16:59:41.900,0.0107,0.8799,0.5422,-76.4236,3.3035,26.6647,2.0434,-54.0028,13.1358,,,,
04_S8,04/05/2023,16:59:42.000,0.0269,0.9033,0.5396,-34.4315,8.7891,17.1738,4.3786,-55.1705,17.2225,Inactive,0,24.62,
04_S8,04/05/2023,16:59:42.100,0.0081,0.8142,0.6172,-49.1943,9.3689,-1.1597,4.6705,-55.1705,19.2659,,,,
04_S8,04/05/2023,16:59:42.200,0.0378,0.7681,0.6538,-39.6729,4.7150,6.5460,4.6705,-55.1705,19.2659,,,,
04_S8,04/05/2023,16:59:42.300,-0.0088,0.7683,0.7349,-45.7382,12.4207,-8.7433,7.5896,-55.1705,21.0173,,,,
04_S8,04/05/2023,16:59:42.400,-0.0073,0.6470,0.8030,-58.2199,-15.9531,-13.4354,8.7572,-54.8786,23.6445,,,,
04_S8,04/05/2023,16:59:42.500,0.0134,0.5833,0.8672,-69.1986,-12.6266,-15.3961,12.5520,-54.2947,24.8121,,,,
04_S8,04/05/2023,16:59:42.600,-0.0166,0.4893,0.9285,-63.0417,6.7062,-12.1918,16.3468,-54.0028,27.1474,,,,
04_S8,04/05/2023,16:59:42.700,-0.0337,0.4036,0.9590,-36.6898,4.2496,-0.0687,16.3468,-54.0028,27.1474,,,,
04_S8,04/05/2023,16:59:42.800,-0.0366,0.3450,0.9790,-51.1093,11.4136,1.0681,20.4335,-54.5866,27.4393,,,,
04_S8,04/05/2023,16:59:42.900,-0.0315,0.2485,1.0317,-33.7982,11.2534,-1.0757,22.4769,-54.0028,29.7745,,,,
04_S8,04/05/2023,16:59:43.000,0.0247,0.2588,1.0964,-31.6010,-32.8445,20.1569,24.6662,-53.8569,28.4610,Inactive,0,24.61,
04_S8,04/05/2023,16:59:43.100,0.0337,0.1528,1.0085,-24.7726,-9.1019,9.5520,27.5852,-55.3164,28.1690,,,,
04_S8,04/05/2023,16:59:43.200,0.0508,0.1526,1.0291,-20.3400,1.7700,6.4087,27.5852,-55.3164,28.1690,,,,
04_S8,04/05/2023,16:59:43.300,0.0173,0.1458,1.0164,-7.7972,5.9128,1.9913,27.4393,-55.7543,27.4393,,,,
04_S8,04/05/2023,16:59:43.400,0.0432,0.1467,1.0352,-3.9444,1.9379,1.6861,27.1474,-54.8786,28.8988,,,,
04_S8,04/05/2023,16:59:43.500,0.0291,0.1375,1.0378,1.2741,2.2278,1.1826,26.2716,-55.4624,28.8988,,,,
04_S8,04/05/2023,16:59:43.600,0.0261,0.1394,1.0164,-2.1210,3.1586,3.0670,26.1257,-57.0679,28.1690,,,,
04_S8,04/05/2023,16:59:43.700,0.0410,0.1519,1.0781,-11.2076,1.5717,3.5477,26.1257,-57.0679,28.1690,,,,
04_S8,04/05/2023,16:59:43.800,0.0122,0.0635,1.0117,-28.8467,8.4534,1.9226,28.3150,-57.7976,29.1907,,,,
04_S8,04/05/2023,16:59:43.900,0.0325,0.0405,1.0491,-19.5312,1.8005,2.9678,31.2341,-56.6300,29.1907,,,,
04_S8,04/05/2023,16:59:44.000,0.0188,0.0352,1.0444,-12.0697,1.9760,3.3875,31.9638,-55.0245,27.2933,Inactive,0,24.65,
04_S8,04/05/2023,16:59:44.100,0.0303,0.0125,1.0520,-3.3264,0.1450,0.2289,31.9638,-54.7326,27.8771,,,,
04_S8,04/05/2023,16:59:44.200,0.0286,0.0195,1.0264,-1.8311,0.8774,0.5798,31.9638,-54.7326,27.8771,,,,
04_S8,04/05/2023,16:59:44.300,0.0344,0.0056,1.0322,-0.0916,-0.4501,0.6180,35.4667,-54.4407,29.9205,,,,
04_S8,04/05/2023,16:59:44.400,0.0405,0.0098,1.0396,-0.9460,-0.5951,1.9073,44.6618,-42.6185,23.0607,,,,
04_S8,04/05/2023,16:59:44.500,0.0371,0.0190,1.0376,-1.7166,-0.2441,1.3351,77.9392,-15.7630,43.7861,,,,
04_S8,04/05/2023,16:59:44.600,0.0520,0.0159,1.0405,-0.4272,-1.2817,-0.4578,62.9060,55.9002,181.7122,,,,
04_S8,04/05/2023,16:59:44.700,0.0569,0.0208,1.0447,-0.0076,0.5798,0.4730,62.9060,55.9002,181.7122,,,,
04_S8,04/05/2023,16:59:44.800,0.0459,0.0303,1.0369,0.0229,2.1973,1.6861,147.1212,189.1559,573.8896,,,,
04_S8,04/05/2023,16:59:44.900,0.0547,0.0264,1.0530,-0.4501,1.1063,-0.0229,384.0039,396.2640,2905.2064,,,,
04_S8,04/05/2023,16:59:45.000,0.0513,0.0220,1.0393,-2.1744,2.8992,0.1450,0.0000,0.0000,4782.0238,Inactive,0,24.64,
04_S8,04/05/2023,16:59:45.100,0.0513,0.0173,1.0430,-1.2665,2.1744,1.1215,0.0000,0.0000,4782.0238,,,,TIMEMARK!
04_S8,04/05/2023,16:59:45.200,0.0498,0.0288,1.0381,-0.3586,1.6251,1.3733,0.0000,0.0000,4782.0238,,,,
04_S8,04/05/2023,16:59:45.300,0.0527,0.0266,1.0476,-1.7853,1.6251,1.1978,0.0000,0.0000,4782.0238,,,,
04_S8,04/05/2023,16:59:45.400,0.0552,0.0190,1.0410,-2.5635,2.1515,0.7095,0.0000,0.0000,4782.0238,,,,
04_S8,04/05/2023,16:59:45.500,0.0544,0.0217,1.0469,-1.9379,1.8158,1.0834,0.0000,0.0000,4782.0238,,,,
04_S8,04/05/2023,16:59:45.600,0.0493,0.0283,1.0471,-2.4261,1.9684,1.3962,0.0000,0.0000,4782.0238,,,,
04_S8,04/05/2023,16:59:45.700,0.0503,0.0198,1.0425,-2.5253,1.5945,1.0223,0.0000,0.0000,4782.0238,,,,
04_S8,04/05/2023,16:59:45.800,0.0605,0.0122,1.0459,-2.1133,1.5030,0.7706,0.0000,0.0000,4782.0238,,,,
04_S8,04/05/2023,16:59:45.900,0.0569,0.0105,1.0439,-1.4648,1.5869,0.8469,0.0000,0.0000,4782.0238,,,,
04_S8,04/05/2023,16:59:46.000,0.0554,0.0120,1.0417,-0.5035,1.9455,0.8240,0.0000,0.0000,4782.0238,Inactive,0,24.66,
04_S8,04/05/2023,16:59:46.100,0.0601,0.0134,1.0469,-2.3041,0.5951,1.7548,0.0000,0.0000,4782.0238,,,,
04_S8,04/05/2023,16:59:46.200,0.0652,0.0146,1.0625,-2.1973,0.9613,0.9689,0.0000,0.0000,4782.0238,,,,
04_S8,04/05/2023,16:59:46.300,0.0659,0.0120,1.0535,-1.8082,1.7319,1.3733,0.0000,0.0000,4782.0238,,,,
04_S8,04/05/2023,16:59:46.400,0.0686,0.0051,1.0420,-3.4256,0.7324,2.0370,928.2649,1772.7524,1418.6690,,,,
04_S8,04/05/2023,16:59:46.500,0.0618,-0.0039,1.0415,-0.6866,2.6474,1.3657,63.3439,-16.3468,1.1676,,,,
04_S8,04/05/2023,16:59:46.600,0.0508,0.0056,1.0315,-2.7390,3.8071,2.3270,63.3439,-16.3468,1.1676,,,,
04_S8,04/05/2023,16:59:46.700,0.0625,-0.0071,1.0376,-2.0142,0.8163,0.7477,36.4884,-51.9595,29.4826,,,,
04_S8,04/05/2023,16:59:46.800,0.0649,-0.0007,1.0322,-1.8463,-0.3967,1.9608,32.4017,-51.6676,29.1907,,,,
04_S8,04/05/2023,16:59:46.900,0.0723,-0.0024,1.0449,-2.7390,-0.8469,2.4338,31.5260,-52.8352,31.5260,,,,
04_S8,04/05/2023,16:59:47.000,0.0781,-0.0083,1.0483,-3.0136,-0.0229,1.4954,32.9855,-52.5433,31.5260,Inactive,0,24.66,
04_S8,04/05/2023,16:59:47.100,0.0776,-0.0090,1.0439,-2.6550,1.4420,1.3428,32.9855,-52.5433,31.5260,,,,
04_S8,04/05/2023,16:59:47.200,0.0752,-0.0120,1.0361,-1.6403,2.6779,0.6027,33.1315,-52.3973,31.6719,,,,
04_S8,04/05/2023,16:59:47.300,0.0898,-0.0222,1.0518,-1.1215,1.5564,0.4501,33.2774,-53.1271,32.9855,,,,
04_S8,04/05/2023,16:59:47.400,0.0764,-0.0115,1.0413,0.1450,3.2043,2.8610,33.2774,-52.5433,31.8179,,,,
04_S8,04/05/2023,16:59:47.500,0.0615,-0.0044,1.0386,1.0223,3.4409,3.8452,33.1315,-52.1054,33.1315,,,,
04_S8,04/05/2023,16:59:47.600,0.0762,-0.0061,1.0627,2.8381,2.6474,1.8539,33.1315,-52.1054,33.1315,,,,
04_S8,04/05/2023,16:59:47.700,0.0679,-0.0007,1.0151,4.2191,5.5466,1.6022,31.6719,-52.1054,30.2124,,,,
04_S8,04/05/2023,16:59:47.800,0.0720,0.0378,1.0823,4.4022,2.4719,4.4098,32.6936,-51.0838,31.2341,,,,
04_S8,04/05/2023,16:59:47.900,0.0547,0.0244,1.0476,0.9308,6.2561,1.7014,32.8396,-51.8135,32.2557,,,,
04_S8,04/05/2023,16:59:48.000,0.0000,0.0000,0.0000,0.0000,0.0000,0.0000,0.0000,0.0000,0.0000,Inactive,,21,Power off command received.
