TagID;Date;Time;accX;accY;accZ;gyroX;gyroY;gyroZ;compX;compY;compZ;Activity;Depth;Temp. (?C);Metadata
04_S3;04/05/2023;16:59:14;9536;496;-388;9308;44403;144196;-137196;-1082976;93410;Active;8.43744E+14;-36868;
04_S3;04/05/2023;16:59:14;10063;132;-203;24567;65079;377350;-126980;-1099031;109465;;;;
04_S3;04/05/2023;16:59:14;9956;-852;-369;13580;27771;389252;-87572;-1094652;113844;;;;
04_S3;04/05/2023;16:59:14;10066;-1255;-432;16861;16632;357666;-64220;-1088814;93410;;;;
04_S3;04/05/2023;16:59:14;9966;-1538;-371;31586;35324;324860;-64220;-1088814;93410;;;;
04_S3;04/05/2023;16:59:14;9866;-1824;-308;46387;54092;291977;-64220;-1088814;93410;;;;
04_S3;04/05/2023;16:59:15;9800;-2520;-266;79193;48828;286255;-37948;-1091733;102168;;;;
04_S3;04/05/2023;16:59:15;9470;-2742;-83;72479;2670;400848;-29191;-1088814;102168;;;;
04_S3;04/05/2023;16:59:15;9404;-3481;-142;-11902;-35553;321350;4379;-1090273;109465;;;;
04_S3;04/05/2023;16:59:15;9192;-4092;-422;-49515;-26932;322495;37948;-1082976;99248;;;;
04_S3;04/05/2023;16:59:15;9055;-4263;-417;-39673;54245;223312;37948;-1082976;99248;Inactive;0;1991;
04_S3;04/05/2023;16:59:15;8865;-4641;-371;-55161;62256;151215;46705;-1065461;105087;;;;
04_S3;04/05/2023;16:59:15;8918;-4875;-237;-39597;62332;87585;58381;-1065461;99248;;;;
04_S3;04/05/2023;16:59:15;8682;-4973;-90;-305;89951;101089;70058;-1068380;108006;;;;
04_S3;04/05/2023;16:59:15;8745;-5051;-78;-16479;63324;122986;70058;-1071299;119682;;;;
04_S3;04/05/2023;16:59:16;8486;-5364;-98;-134430;-6256;202332;70058;-1071299;119682;;;;
04_S3;04/05/2023;16:59:16;8064;-5676;-334;-93689;53711;351562;78815;-1039190;108006;;;;
04_S3;04/05/2023;16:59:16;7690;-6394;-493;-284424;120163;559006;137196;-1033351;110925;;;;
04_S3;04/05/2023;16:59:16;7332;-7373;-493;-166550;56152;508957;179523;-1002701;100708;;;;
04_S3;04/05/2023;16:59:16;6270;-7690;-715;-139236;-2365;363541;192659;-986646;87572;;;;
04_S3;04/05/2023;16:59:16;5942;-7830;-940;-120621;72174;458908;192659;-986646;87572;Inactive;0;1998;
04_S3;04/05/2023;16:59:16;5537;-8286;-901;-68512;27390;332642;211633;-953077;86113;;;;
04_S3;04/05/2023;16:59:16;5283;-8433;-925;-5875;-2975;145721;224769;-948698;87572;;;;
04_S3;04/05/2023;16:59:16;4814;-8489;-820;46463;-30441;202408;233526;-928265;93410;;;;
04_S3;04/05/2023;16:59:16;4788;-8804;-1030;33340;-22659;168457;239364;-934103;96329;;;;
04_S3;04/05/2023;16:59:16;4099;-8911;-808;58136;-92621;183258;239364;-934103;96329;;;;
04_S3;04/05/2023;16:59:17;4106;-8933;-759;67062;-127716;237808;232066;-906372;86113;;;;
04_S3;04/05/2023;16:59:17;3789;-8945;-637;16708;-60425;140152;248121;-890317;84653;;;;
04_S3;04/05/2023;16:59:17;3706;-9421;-867;39139;229;123062;246662;-888857;97789;;;;
04_S3;04/05/2023;16:59:17;3215;-8870;-610;-67978;-150146;246964;246662;-888857;97789;;;;
04_S3;04/05/2023;16:59:17;2793;-9292;-894;26703;-167618;217667;259797;-869883;87572;Inactive;0;1997;
04_S3;04/05/2023;16:59:17;1860;-9385;-1033;147400;-34027;218658;268555;-861126;84653;;;;
04_S3;04/05/2023;16:59:17;1716;-9729;-774;108795;-102310;230637;275852;-850909;86113;;;;
04_S3;04/05/2023;16:59:17;1665;-9771;-693;34103;-107574;227814;275852;-850909;86113;;;;
04_S3;04/05/2023;16:59:17;1165;-9910;-637;-53101;-71030;285416;278771;-836314;91951;;;;
04_S3;04/05/2023;16:59:17;493;-9951;-925;22430;38834;176926;284610;-824638;86113;;;;
04_S3;04/05/2023;16:59:18;403;-9814;-496;85373;35934;180740;274393;-802745;90491;;;;
04_S3;04/05/2023;16:59:18;5;-9690;-354;92926;63477;167694;281690;-780852;103627;;;;
04_S3;04/05/2023;16:59:18;-122;-10046;-410;-37537;21744;198669;281690;-780852;103627;;;;
04_S3;04/05/2023;16:59:18;-779;-9832;-513;-21210;31586;257950;287529;-772095;106546;;;;
04_S3;04/05/2023;16:59:18;-1125;-9988;-442;11215;23575;293045;297745;-747282;108006;Inactive;0;1995;
04_S3;04/05/2023;16:59:18;-1748;-9731;-195;109711;52261;338821;293367;-719551;103627;;;;
04_S3;04/05/2023;16:59:18;-2190;-9524;-139;87204;56992;202026;294826;-700577;113844;;;;
04_S3;04/05/2023;16:59:18;-2307;-9534;129;114212;-229;179291;294826;-700577;113844;;;;
04_S3;04/05/2023;16:59:18;-2827;-9124;237;93765;24185;396194;278771;-681603;115303;;;;
04_S3;04/05/2023;16:59:19;-3535;-9292;320;-6027;117188;278549;268555;-653872;119682;;;;
04_S3;04/05/2023;16:59:19;-3860;-9189;474;-97351;148926;186081;270014;-631979;135737;;;;
04_S3;04/05/2023;16:59:19;-4060;-8564;144;-52948;103226;213318;265636;-618843;116763;;;;
04_S3;04/05/2023;16:59:19;-4453;-8918;-137;56686;40741;327301;265636;-618843;116763;;;;
04_S3;04/05/2023;16:59:19;-4963;-8364;0;0;7629;259857;258338;-585274;109465;;;;
04_S3;04/05/2023;16:59:19;-5146;-8481;93;37079;-29907;95520;258338;-591112;115303;Inactive;0;1995;
04_S3;04/05/2023;16:59:19;-5310;-8337;249;58441;-36926;102310;236445;-577976;134277;;;;
04_S3;04/05/2023;16:59:19;-5300;-8367;317;-2823;-43869;93079;246662;-576517;124061;;;;
04_S3;04/05/2023;16:59:19;-5688;-8179;437;58441;-113144;217361;246662;-576517;124061;;;;
04_S3;04/05/2023;16:59:19;-6296;-7468;896;119705;-166321;409317;233526;-554624;137196;;;;
04_S3;04/05/2023;16:59:19;-6519;-7307;1216;19684;-98114;313034;195578;-557543;151792;;;;
04_S3;04/05/2023;16:59:20;-6848;-7065;1309;41122;-25787;229568;191199;-526892;150332;;;;
04_S3;04/05/2023;16:59:20;-7302;-6648;1233;4654;39368;337830;183902;-516676;148873;;;;
04_S3;04/05/2023;16:59:20;-7559;-6191;1265;-8774;45319;312576;183902;-516676;148873;;;;
04_S3;04/05/2023;16:59:20;-7957;-5715;1077;-60577;79117;419922;163468;-493323;148873;;;;
04_S3;04/05/2023;16:59:20;-8379;-5332;1011;-19684;35172;392456;138656;-477268;144494;Inactive;0;1997;
04_S3;04/05/2023;16:59:20;-8770;-4307;1157;56229;-18692;454330;121141;-445158;150332;;;;
04_S3;04/05/2023;16:59:20;-8975;-3721;1296;70267;-19836;415878;90491;-434942;148873;;;;
04_S3;04/05/2023;16:59:20;-9253;-3218;1379;27008;-14114;273743;90491;-434942;148873;;;;
04_S3;04/05/2023;16:59:20;-9395;-3022;1387;-60196;-11063;162354;78815;-446618;151792;;;;
04_S3;04/05/2023;16:59:20;-9519;-2998;1204;-90790;58212;217133;65679;-413049;159089;;;;
04_S3;04/05/2023;16:59:21;-9431;-2285;1240;-17014;25864;181122;64220;-432023;151792;;;;
04_S3;04/05/2023;16:59:21;-9700;-1943;1262;41046;12589;273895;64220;-432023;151792;;;;
04_S3;04/05/2023;16:59:21;-9746;-1377;1318;15335;3891;266953;36488;-415968;153251;;;;
04_S3;04/05/2023;16:59:21;-9575;-1072;1379;8469;17242;191650;23353;-420346;148873;;;;
04_S3;04/05/2023;16:59:21;-10046;-789;1050;14954;73624;204163;13136;-395534;153251;Inactive;0;1998;
04_S3;04/05/2023;16:59:21;-9954;-566;1045;1068;43869;224304;-13136;-410130;147413;;;;
04_S3;04/05/2023;16:59:21;-9714;-137;1404;4272;25101;222244;-13136;-410130;147413;;;;
04_S3;04/05/2023;16:59:21;-9873;271;898;13428;74158;154953;-30650;-392615;138656;;;;
04_S3;04/05/2023;16:59:21;-10012;903;1016;119171;12512;292358;-37948;-399913;140115;;;;
04_S3;04/05/2023;16:59:22;-9768;1228;1118;113220;20905;263824;-58381;-394075;143035;;;;
04_S3;04/05/2023;16:59:22;-9993;1995;1147;237274;-20065;357742;-97789;-404291;147413;;;;
04_S3;04/05/2023;16:59:22;-9585;2375;1118;60883;2060;286484;-97789;-404291;147413;;;;
04_S3;04/05/2023;16:59:22;-9634;2200;898;-3204;85831;171738;-129899;-398453;144494;;;;
04_S3;04/05/2023;16:59:22;-9302;3262;774;41428;69351;396347;-144494;-395534;144494;;;;
04_S3;04/05/2023;16:59:22;-8967;3918;696;51422;-19989;505829;-172225;-408670;143035;Inactive;0;1993;
04_S3;04/05/2023;16:59:22;-8708;5125;1270;-102386;-125122;530319;-211633;-433482;144494;;;;
04_S3;04/05/2023;16:59:22;-8599;5735;1323;-5417;5264;376129;-211633;-433482;144494;;;;
04_S3;04/05/2023;16:59:22;-7991;5347;686;85754;97427;227356;-252500;-439320;150332;;;;
04_S3;04/05/2023;16:59:22;-7634;5999;823;13275;-22125;397644;-258338;-450997;153251;;;;
04_S3;04/05/2023;16:59:23;-6895;6914;1143;-27466;-55084;520325;-287529;-471430;144494;;;;
04_S3;04/05/2023;16:59:23;-6504;7627;1384;-71945;-78201;511475;-309422;-504999;169306;;;;
04_S3;04/05/2023;16:59:23;-6091;7988;1367;-38834;-52795;436859;-309422;-504999;169306;;;;
04_S3;04/05/2023;16:59:23;-5442;8416;1418;-2136;-45471;379715;-325477;-523973;147413;;;;
04_S3;04/05/2023;16:59:23;-4656;8838;1494;13580;40436;380096;-342991;-556083;153251;;;;
04_S3;04/05/2023;16:59:23;-4507;8801;1304;11139;132141;295258;-353208;-563381;154711;Inactive;0;20;
04_S3;04/05/2023;16:59:23;-4128;9048;1082;7095;166855;228806;-356127;-566300;134277;;;;
04_S3;04/05/2023;16:59:23;-3469;9355;1162;-46234;127487;310593;-356127;-566300;134277;;;;
04_S3;04/05/2023;16:59:23;-2961;9646;1179;-27695;103073;376129;-367803;-580895;140115;;;;
04_S3;04/05/2023;16:59:23;-2520;9827;994;56839;84152;374222;-402832;-610086;143035;;;;
04_S3;04/05/2023;16:59:23;-1816;9980;977;12131;26169;372086;-394075;-639277;140115;;;;
04_S3;04/05/2023;16:59:24;-1104;10151;862;49744;12360;405884;-407211;-669927;124061;;;;
04_S3;04/05/2023;16:59:24;-608;10054;774;58212;42038;300446;-407211;-669927;124061;;;;
04_S3;04/05/2023;16:59:24;-134;10151;527;129623;72479;306091;-415968;-693280;129899;;;;
04_S3;04/05/2023;16:59:24;583;10164;259;106277;66376;341721;-415968;-699118;112384;;;;
04_S3;04/05/2023;16:59:24;1228;10085;264;687;44403;427780;-418887;-731228;109465;Inactive;0;1999;
04_S3;04/05/2023;16:59:24;1846;10005;532;-197754;60501;386200;-413049;-757499;132818;;;;
04_S3;04/05/2023;16:59:24;2549;9841;830;-145493;96130;347748;-413049;-757499;132818;;;;
04_S3;04/05/2023;16:59:24;3040;9617;1128;-155716;67749;397797;-415968;-786690;141575;;;;
04_S3;04/05/2023;16:59:24;3774;9504;1230;-70572;87814;461578;-392615;-812962;138656;;;;
04_S3;04/05/2023;16:59:24;4390;9077;1409;-54321;128250;391846;-389696;-853829;159089;;;;
04_S3;04/05/2023;16:59:25;5051;8557;1907;-10376;119705;355453;-389696;-853829;159089;;;;
04_S3;04/05/2023;16:59:25;5454;8591;1501;17014;165558;354843;-382398;-858207;151792;;;;
04_S3;04/05/2023;16:59:25;5884;8057;1406;96893;23956;321655;-373641;-869883;154711;;;;
04_S3;04/05/2023;16:59:25;6418;7761;1177;169754;-8545;484543;-364884;-904912;140115;;;;
04_S3;04/05/2023;16:59:25;6787;7322;938;109329;-25024;269775;-361965;-919508;131358;Inactive;0;2002;
04_S3;04/05/2023;16:59:25;7383;6965;684;169525;-84381;469284;-361965;-919508;131358;;;;
04_S3;04/05/2023;16:59:25;7795;6533;320;102081;-63019;351791;-345910;-958915;126980;;;;
04_S3;04/05/2023;16:59:25;8145;6074;254;-6027;-39291;223770;-318179;-972051;110925;;;;
04_S3;04/05/2023;16:59:25;8325;5754;352;-54321;-24185;294952;-321098;-992484;105087;;;;
04_S3;04/05/2023;16:59:26;8857;5408;503;-33112;112305;459366;-286069;-998323;119682;;;;
04_S3;04/05/2023;16:59:26;9023;4041;483;-115204;72556;382614;-286069;-998323;119682;;;;
04_S3;04/05/2023;16:59:26;9397;4080;659;-70038;34485;444641;-261257;-1026054;129899;;;;
04_S3;04/05/2023;16:59:26;9568;3230;713;-37994;7935;359497;-237904;-1034811;132818;;;;
04_S3;04/05/2023;16:59:26;9846;2385;708;-36774;7248;390854;-205795;-1028973;138656;;;;
04_S3;04/05/2023;16:59:26;10093;1704;742;-29755;32883;570450;-178063;-1068380;131358;Inactive;0;2004;
04_S3;04/05/2023;16:59:26;10054;618;735;-45624;72174;517502;-178063;-1068380;131358;;;;
04_S3;04/05/2023;16:59:26;10002;-71;732;-81177;-10681;457306;-122601;-1065461;143035;;;;
04_S3;04/05/2023;16:59:26;10110;-850;608;-53101;-74158;415497;-90491;-1074218;134277;;;;
04_S3;04/05/2023;16:59:26;9919;-1560;583;-23346;-59967;508957;-64220;-1077138;137196;;;;
04_S3;04/05/2023;16:59:27;9880;-2266;547;27466;65842;445633;-37948;-1074218;131358;;;;
04_S3;04/05/2023;16:59:27;9653;-2815;913;17700;224686;102692;-37948;-1074218;131358;;;;
04_S3;04/05/2023;16:59:27;9846;-2930;1045;-54932;99335;224304;-20434;-1059623;145954;;;;
04_S3;04/05/2023;16:59:27;9399;-3499;1055;-65613;73166;337372;7298;-1066921;141575;;;;
04_S3;04/05/2023;16:59:27;9221;-3960;1064;-112152;62943;259018;20434;-1056704;151792;;;;
04_S3;04/05/2023;16:59:27;8811;-4387;1104;-114822;93536;302124;37948;-1033351;154711;Inactive;0;2003;
04_S3;04/05/2023;16:59:27;8779;-4644;1069;-77744;43259;168381;37948;-1033351;154711;;;;
04_S3;04/05/2023;16:59:27;9041;-4873;1111;-6638;54321;152512;67139;-1036271;154711;;;;
04_S3;04/05/2023;16:59:27;8601;-5142;1208;-10605;56763;175629;71517;-1026054;170766;;;;
04_S3;04/05/2023;16:59:27;8064;-5427;1099;-3052;-7629;220032;83194;-1017297;156170;;;;
04_S3;04/05/2023;16:59:27;8330;-5769;999;-14648;-199585;232544;93410;-1027513;140115;;;;
04_S3;04/05/2023;16:59:28;8040;-6128;840;-1144;-32043;209122;93410;-1027513;140115;;;;
04_S3;04/05/2023;16:59:28;7312;-6213;850;66452;11749;201645;108006;-1012918;148873;;;;
04_S3;04/05/2023;16:59:28;7532;-7407;771;14801;-164337;505524;126980;-996863;141575;;;;
04_S3;04/05/2023;16:59:28;6375;-7810;232;-125809;-193939;709534;176604;-979349;121141;;;;
04_S3;04/05/2023;16:59:28;5901;-8433;63;-36697;-48218;416260;176604;-979349;121141;Inactive;0;2002;
04_S3;04/05/2023;16:59:28;5078;-8718;210;60425;-16098;426712;194118;-964753;124061;;;;
04_S3;04/05/2023;16:59:28;5073;-8337;566;13504;31128;231323;216011;-942860;128439;;;;
04_S3;04/05/2023;16:59:28;4160;-9480;-27;-23117;101242;191116;218930;-925346;119682;;;;
04_S3;04/05/2023;16:59:28;3840;-9160;442;112534;-75531;409622;227688;-910750;134277;;;;
04_S3;04/05/2023;16:59:28;3264;-9314;757;118484;-87814;433731;227688;-910750;134277;;;;
04_S3;04/05/2023;16:59:29;2439;-9563;720;88730;-38223;432358;232066;-877181;132818;;;;
04_S3;04/05/2023;16:59:29;1621;-9753;840;73700;-44327;440063;246662;-842152;144494;;;;
04_S3;04/05/2023;16:59:29;935;-9771;1025;50659;-48141;471878;245202;-814421;137196;;;;
04_S3;04/05/2023;16:59:29;383;-9810;1064;4807;-10834;425110;259797;-793988;151792;;;;
04_S3;04/05/2023;16:59:29;-420;-10000;867;-31128;33951;357132;259797;-793988;151792;Inactive;0;2005;
04_S3;04/05/2023;16:59:29;-803;-9878;950;-14343;51804;227509;258338;-769175;159089;;;;
04_S3;04/05/2023;16:59:29;-1218;-9851;837;-18463;70724;216599;264176;-737066;135737;;;;
04_S3;04/05/2023;16:59:29;-1494;-9714;901;3967;81482;152588;275852;-734147;135737;;;;
04_S3;04/05/2023;16:59:29;-1736;-9570;869;-25177;96054;177536;274393;-718092;140115;;;;
04_S3;04/05/2023;16:59:30;-1987;-9609;813;-42038;95749;180054;274393;-718092;140115;;;;
04_S3;04/05/2023;16:59:30;-2415;-9661;723;-45547;82397;169754;284610;-704956;135737;;;;
04_S3;04/05/2023;16:59:30;-2917;-9172;559;-50125;48828;331421;264176;-681603;126980;;;;
04_S3;04/05/2023;16:59:30;-3103;-9297;610;-7172;44403;232544;274393;-665548;125520;;;;
04_S3;04/05/2023;16:59:30;-3799;-9277;564;8011;132446;311890;249581;-631979;126980;;;;
04_S3;04/05/2023;16:59:30;-4116;-9258;603;-37766;58670;166702;249581;-631979;126980;Inactive;0;1996;
04_S3;04/05/2023;16:59:30;-4590;-9048;479;65994;82321;358734;259797;-607167;131358;;;;
04_S3;04/05/2023;16:59:30;-5520;-8047;535;119324;156403;669403;236445;-583814;125520;;;;
04_S3;04/05/2023;16:59:30;-6289;-7563;708;146790;80032;553589;205795;-529812;141575;;;;
04_S3;04/05/2023;16:59:30;-6753;-7256;830;96207;33875;402298;186821;-525433;140115;;;;
04_S3;04/05/2023;16:59:30;-7341;-6440;967;103378;6256;543442;186821;-525433;140115;;;;
04_S3;04/05/2023;16:59:31;-8020;-5637;1123;37918;9918;593185;147413;-488945;150332;;;;
04_S3;04/05/2023;16:59:31;-8496;-4873;1074;-10605;38452;530930;115303;-450997;141575;;;;
04_S3;04/05/2023;16:59:31;-8960;-4116;1060;-23575;21591;503006;93410;-432023;148873;;;;
04_S3;04/05/2023;16:59:31;-9294;-3279;969;-72556;60577;497742;67139;-420346;148873;;;;
04_S3;04/05/2023;16:59:31;-9438;-2517;952;-79880;40741;370331;67139;-420346;148873;Inactive;0;2003;
04_S3;04/05/2023;16:59:31;-9578;-2349;815;-38452;80566;288391;49624;-402832;131358;;;;
04_S3;04/05/2023;16:59:31;-9817;-1602;632;-28458;109711;429001;27731;-401372;129899;;;;
04_S3;04/05/2023;16:59:31;-9670;-879;559;3891;40436;360031;-11676;-391156;128439;;;;
04_S3;04/05/2023;16:59:31;-10386;-342;452;61722;-17319;334854;-35029;-385318;134277;;;;
04_S3;04/05/2023;16:59:32;-9412;469;786;6409;-83237;379028;-35029;-385318;134277;;;;
04_S3;04/05/2023;16:59:32;-9375;938;1111;-72556;-71564;275192;-65679;-392615;135737;;;;
04_S3;04/05/2023;16:59:32;-9844;1343;972;-104141;57220;371246;-80274;-398453;126980;;;;
04_S3;04/05/2023;16:59:32;-9626;1877;911;-56458;52109;297852;-99248;-388237;128439;;;;
04_S3;04/05/2023;16:59:32;-9692;2437;779;-44556;63934;361862;-99248;-388237;128439;;;;
04_S3;04/05/2023;16:59:32;-9368;2920;1064;-52185;-100403;309219;-132818;-398453;129899;Inactive;0;2007;
04_S3;04/05/2023;16:59:32;-9143;3662;686;21896;215683;242844;-150332;-404291;147413;;;;
04_S3;04/05/2023;16:59:32;-9480;3821;413;-37537;129089;237427;-166387;-414508;125520;;;;
04_S3;04/05/2023;16:59:32;-8916;4236;693;-47607;-36621;291977;-180982;-405751;113844;;;;
04_S3;04/05/2023;16:59:32;-8711;4834;510;-8316;37308;312576;-180982;-405751;113844;;;;
04_S3;04/05/2023;16:59:32;-8542;5112;620;-17319;25558;289307;-204335;-414508;116763;;;;
04_S3;04/05/2023;16:59:33;-8247;5540;618;13504;-3357;246048;-227688;-414508;128439;;;;
04_S3;04/05/2023;16:59:33;-7937;5923;664;-27008;-10071;300293;-246662;-427644;118222;;;;
04_S3;04/05/2023;16:59:33;-7893;6350;837;-105438;-46158;350418;-274393;-443699;134277;;;;
04_S3;04/05/2023;16:59:33;-7271;6814;964;-74768;-28229;292130;-274393;-443699;134277;;;;
04_S3;04/05/2023;16:59:33;-6860;7178;964;53101;-36011;359726;-275852;-462673;129899;Inactive;0;2003;
04_S3;04/05/2023;16:59:33;-6267;7673;940;12970;-12360;369797;-297745;-481647;137196;;;;
04_S3;04/05/2023;16:59:33;-6003;8088;1023;43793;-78659;383224;-321098;-493323;131358;;;;
04_S3;04/05/2023;16:59:33;-5400;8330;1072;-19379;-48828;341797;-328396;-532731;144494;;;;
04_S3;04/05/2023;16:59:33;-4609;8721;1287;-48752;-84915;353394;-328396;-532731;144494;;;;
04_S3;04/05/2023;16:59:33;-5027;9189;1511;-94223;-86212;270233;-353208;-548786;151792;;;;
04_S3;04/05/2023;16:59:34;-3904;9111;1555;-43793;23880;185471;-356127;-557543;154711;;;;
04_S3;04/05/2023;16:59:34;-4080;9111;1572;-15945;-29678;93842;-369263;-561921;156170;;;;
04_S3;04/05/2023;16:59:34;-3770;9238;1589;-15030;-11444;155792;-367803;-598410;169306;;;;
04_S3;04/05/2023;16:59:34;-3579;9187;1580;-26550;2136;133133;-367803;-598410;169306;;;;
04_S3;04/05/2023;16:59:34;-3469;9338;1523;67062;58517;73318;-369263;-576517;150332;Inactive;0;2003;
04_S3;04/05/2023;16:59:34;-3262;9426;1267;124512;87585;110703;-375101;-582355;153251;;;;
04_S3;04/05/2023;16:59:34;-3474;9756;1172;-534;11749;79956;-372182;-594031;153251;;;;
04_S3;04/05/2023;16:59:34;-2747;9634;1101;37079;54169;302658;-392615;-623222;141575;;;;
04_S3;04/05/2023;16:59:34;-2354;9299;1399;-34943;-7858;155792;-392615;-623222;141575;;;;
04_S3;04/05/2023;16:59:35;-2332;10134;737;186996;76752;143967;-375101;-629060;135737;;;;
04_S3;04/05/2023;16:59:35;-2039;9805;696;58670;37460;115509;-398453;-629060;129899;;;;
04_S3;04/05/2023;16:59:35;-1860;10020;623;49362;50430;117188;-408670;-642196;119682;;;;
04_S3;04/05/2023;16:59:35;-1799;9863;615;13123;42038;127258;-407211;-652413;118222;;;;
04_S3;04/05/2023;16:59:35;-1379;10046;415;54626;32883;185394;-407211;-652413;118222;;;;
04_S3;04/05/2023;16:59:35;-845;10002;210;54016;30823;179138;-420346;-650953;110925;Inactive;0;2005;
04_S3;04/05/2023;16:59:35;-801;10149;251;-5417;42267;203476;-415968;-661170;115303;;;;
04_S3;04/05/2023;16:59:35;-129;10139;461;-103607;44327;363083;-418887;-696199;121141;;;;
04_S3;04/05/2023;16:59:35;530;10486;750;-120544;35934;448303;-415968;-734147;129899;;;;
04_S3;04/05/2023;16:59:35;1042;10022;684;-20370;27390;199432;-415968;-734147;129899;;;;
04_S3;04/05/2023;16:59:35;1338;10320;750;-21210;38452;230789;-414508;-744363;128439;;;;
04_S3;04/05/2023;16:59:36;1470;9519;945;45547;71793;180740;-411589;-753121;137196;;;;
04_S3;04/05/2023;16:59:36;2510;10386;-173;323563;52414;391083;-418887;-783771;89032;;;;
04_S3;04/05/2023;16:59:36;2761;9568;161;-47760;-3357;252991;-418887;-783771;89032;;;;
04_S3;04/05/2023;16:59:36;3210;9500;134;-36240;6943;234222;-414508;-793988;105087;;;;
04_S3;04/05/2023;16:59:36;3577;9465;200;-45242;-14267;191727;-402832;-805664;110925;Inactive;0;2003;
04_S3;04/05/2023;16:59:36;3989;9409;239;-101776;-61188;257797;-399913;-831936;122601;;;;
04_S3;04/05/2023;16:59:36;4521;9272;237;8316;-146103;461349;-405751;-864045;110925;;;;
04_S3;04/05/2023;16:59:36;4697;8818;-103;-9003;-16327;241470;-405751;-864045;110925;;;;
04_S3;04/05/2023;16:59:36;5486;8752;-83;102463;-87204;293198;-385318;-884479;105087;;;;
04_S3;04/05/2023;16:59:36;5647;8186;-334;74081;-26398;231552;-401372;-897615;94870;;;;
04_S3;04/05/2023;16:59:37;6167;8147;-479;103455;25482;345917;-378020;-923886;97789;;;;
04_S3;04/05/2023;16:59:37;6663;7461;-378;29907;79193;357590;-360505;-947239;77355;;;;
04_S3;04/05/2023;16:59:37;7144;7249;-281;-73090;98648;378418;-360505;-947239;77355;;;;
04_S3;04/05/2023;16:59:37;7498;6826;-117;-85220;89340;377808;-347370;-957456;90491;;;;
04_S3;04/05/2023;16:59:37;7947;6350;59;-55313;64850;339584;-310881;-979349;112384;Inactive;0;2005;
04_S3;04/05/2023;16:59:37;8303;5762;203;-89951;111084;397873;-297745;-995404;113844;;;;
04_S3;04/05/2023;16:59:37;8784;5129;420;-41504;94070;420456;-261257;-1002701;121141;;;;
04_S3;04/05/2023;16:59:37;9065;4590;552;-21820;59967;386658;-261257;-1002701;121141;;;;
04_S3;04/05/2023;16:59:37;9233;4175;432;1755;30518;392532;-248121;-1030432;122601;;;;
04_S3;04/05/2023;16:59:38;9480;3494;474;58517;-534;271378;-234985;-1043568;126980;;;;
04_S3;04/05/2023;16:59:38;9543;3020;410;59204;-7706;247421;-211633;-1058164;121141;;;;
04_S3;04/05/2023;16:59:38;9683;2791;278;21973;28229;264435;-191199;-1055245;124061;;;;
04_S3;04/05/2023;16:59:38;9875;2036;330;21973;47073;313644;-191199;-1055245;124061;;;;
04_S3;04/05/2023;16:59:38;10122;1553;449;143509;31738;401077;-178063;-1059623;125520;;;;
04_S3;04/05/2023;16:59:38;9636;388;151;65613;46539;404968;-154711;-1065461;119682;Inactive;0;2004;
04_S3;04/05/2023;16:59:38;11389;183;-144;71945;-238724;510025;-112384;-1075678;118222;;;;
04_S3;04/05/2023;16:59:38;10173;-630;403;88882;-30746;457611;-86113;-1090273;106546;;;;
04_S3;04/05/2023;16:59:38;9841;-1589;66;-33951;188904;359497;-86113;-1090273;106546;;;;
04_S3;04/05/2023;16:59:38;9712;-2498;176;-43564;48447;474472;-55462;-1068380;108006;;;;
04_S3;04/05/2023;16:59:38;9802;-2559;244;-34790;1678;462036;-18974;-1072759;112384;;;;
04_S3;04/05/2023;16:59:39;9507;-3687;173;-26245;38910;267868;1460;-1075678;124061;;;;
04_S3;04/05/2023;16:59:39;9536;-3955;208;-687;27161;339203;37948;-1050866;119682;;;;
04_S3;04/05/2023;16:59:39;8845;-4377;337;-153;61111;304184;37948;-1050866;119682;;;;
04_S3;04/05/2023;16:59:39;8691;-4949;312;839;19684;325317;49624;-1068380;119682;;;;
04_S3;04/05/2023;16:59:39;8577;-5273;325;62408;8163;361862;81734;-1039190;125520;Inactive;0;2005;
04_S3;04/05/2023;16:59:39;7915;-6013;400;46616;81482;329742;99248;-1042109;122601;;;;
04_S3;04/05/2023;16:59:39;7651;-6201;647;46463;105209;288391;109465;-1017297;129899;;;;
04_S3;04/05/2023;16:59:39;7463;-6816;645;-28305;76675;274506;109465;-1017297;129899;;;;
04_S3;04/05/2023;16:59:39;7205;-7148;576;-175171;20752;278931;124061;-1011458;129899;;;;
04_S3;04/05/2023;16:59:39;6833;-7515;459;-113144;41046;291367;156170;-996863;126980;;;;
04_S3;04/05/2023;16:59:40;6362;-7581;408;-81100;42114;300217;176604;-985187;115303;;;;
04_S3;04/05/2023;16:59:40;5955;-8262;217;-66681;74997;408707;176604;-985187;115303;;;;
04_S3;04/05/2023;16:59:40;5044;-8428;386;-44556;83618;564728;211633;-944320;115303;;;;
04_S3;04/05/2023;16:59:40;4595;-8369;500;29068;88882;376358;232066;-923886;124061;;;;
04_S3;04/05/2023;16:59:40;3413;-9326;740;187149;112839;375977;236445;-899074;145954;Inactive;0;2006;
04_S3;04/05/2023;16:59:40;3386;-9556;562;-139389;36163;558014;245202;-855288;140115;;;;
04_S3;04/05/2023;16:59:40;2173;-9338;610;-32501;26474;412445;245202;-855288;140115;;;;
04_S3;04/05/2023;16:59:40;1843;-9836;413;458;30136;361099;274393;-811502;140115;;;;
04_S3;04/05/2023;16:59:40;815;-9878;811;35629;30746;465393;272933;-792528;138656;;;;
04_S3;04/05/2023;16:59:41;-46;-10046;864;52185;64468;476227;272933;-754580;144494;;;;
04_S3;04/05/2023;16:59:41;-811;-9724;793;36926;48523;514221;277312;-723930;154711;;;;
04_S3;04/05/2023;16:59:41;-1687;-9961;930;85907;8011;535812;277312;-723930;154711;;;;
04_S3;04/05/2023;16:59:41;-2568;-9688;1150;45853;-27084;500412;256878;-674306;148873;;;;
04_S3;04/05/2023;16:59:41;-3208;-9294;1201;5188;-50278;423965;253959;-648034;157630;;;;
04_S3;04/05/2023;16:59:41;-3621;-9331;1160;-11826;-26245;282516;248121;-627600;148873;Inactive;0;2004;
04_S3;04/05/2023;16:59:41;-4116;-8955;1226;-67215;-18463;211868;246662;-623222;153251;;;;
04_S3;04/05/2023;16:59:41;-4355;-8977;1006;-77057;7324;221024;246662;-623222;153251;;;;
04_S3;04/05/2023;16:59:41;-4641;-8633;920;-80719;76;256729;242283;-618843;160549;;;;
04_S3;04/05/2023;16:59:41;-4941;-8440;813;-134964;-10376;194550;245202;-592572;148873;;;;
04_S3;04/05/2023;16:59:42;-5220;-8384;796;-56229;-25024;125961;233526;-583814;137196;;;;
04_S3;04/05/2023;16:59:42;-5391;-8289;852;60196;-69504;172653;234985;-576517;147413;;;;
04_S3;04/05/2023;16:59:42;-5579;-7546;1208;-8469;-192032;421448;234985;-576517;147413;;;;
04_S3;04/05/2023;16:59:42;-6511;-7112;1328;-17014;-105515;507584;210173;-557543;143035;;;;
04_S3;04/05/2023;16:59:42;-7175;-6853;1287;12360;1755;360489;197037;-523973;144494;;;;
04_S3;04/05/2023;16:59:42;-7385;-6167;1448;-8392;-76141;421982;163468;-496242;151792;Inactive;0;2006;
04_S3;04/05/2023;16:59:42;-7839;-5771;1697;-11673;-54626;355988;151792;-504999;154711;;;;
04_S3;04/05/2023;16:59:42;-8079;-5374;1714;18692;-17776;250778;151792;-504999;154711;;;;
04_S3;04/05/2023;16:59:42;-8311;-4971;1501;23270;33112;248489;140115;-493323;166387;;;;
04_S3;04/05/2023;16:59:42;-8484;-4507;1519;11597;30670;253830;141575;-480187;170766;;;;
04_S3;04/05/2023;16:59:42;-9016;-4358;1445;-56381;51651;285187;124061;-462673;153251;;;;
04_S3;04/05/2023;16:59:43;-8728;-3599;1582;-60654;53253;330048;86113;-453916;147413;;;;
04_S3;04/05/2023;16:59:43;-9399;-3413;1121;-53177;142517;233612;86113;-453916;147413;;;;
04_S3;04/05/2023;16:59:43;-9221;-3174;1292;3967;22278;181732;91951;-439320;144494;;;;
04_S3;04/05/2023;16:59:43;-9373;-2717;1399;81024;-40436;215759;70058;-434942;163468;;;;
04_S3;04/05/2023;16:59:43;-9421;-2476;1624;55695;-98801;171051;37948;-437861;180982;Inactive;0;2004;
04_S3;04/05/2023;16:59:43;-9534;-2249;1616;30746;22507;70877;37948;-437861;180982;;;;
04_S3;04/05/2023;16:59:43;-9541;-2278;1433;41428;107040;91019;-90491;-496242;350289;;;;
04_S3;04/05/2023;16:59:43;-9629;-2107;1372;25024;62790;37842;-770635;-694739;2373206;;;;
04_S3;04/05/2023;16:59:43;-9436;-2168;1562;-2823;13809;2823;-2773118;843612;16081168;;;;
04_S3;04/05/2023;16:59:43;-9558;-2363;1555;-1373;1144;-23270;-3872149;2009781;42780460;;;;
04_S3;04/05/2023;16:59:44;-9531;-2192;1421;15945;17166;-5798;-3872149;2009781;42780460;;;;TIMEMARK!
04_S3;04/05/2023;16:59:44;-9585;-2153;1467;3433;19379;14420;0;0;47820238;;;;
04_S3;04/05/2023;16:59:44;-9631;-2080;1462;-5951;19455;21896;0;0;47820238;;;;
04_S3;04/05/2023;16:59:44;-9521;-2119;1501;-6714;15640;16022;0;0;47820238;;;;
04_S3;04/05/2023;16:59:44;-9612;-2219;1487;-8011;16022;5112;0;0;47820238;Inactive;0;2005;
04_S3;04/05/2023;16:59:44;-9551;-2241;1509;-8087;14267;-534;0;0;47820238;;;;
04_S3;04/05/2023;16:59:44;-9590;-2212;1472;-11139;29068;20294;0;0;47820238;;;;
04_S3;04/05/2023;16:59:44;-9570;-2114;1506;-11520;24414;17548;0;0;47820238;;;;
04_S3;04/05/2023;16:59:44;-9653;-2058;1421;-8163;24261;19073;0;0;47820238;;;;
04_S3;04/05/2023;16:59:45;-9553;-2139;1536;-12894;17853;17319;0;0;47820238;;;;
04_S3;04/05/2023;16:59:45;-9619;-2070;1421;-7095;25330;12589;0;0;47820238;;;;
04_S3;04/05/2023;16:59:45;-9690;-2104;1418;-19150;24338;26550;0;0;47820238;;;;
04_S3;04/05/2023;16:59:45;-9646;-1958;1384;-16251;21133;26627;0;0;47820238;;;;
04_S3;04/05/2023;16:59:45;-9619;-1887;1433;-25558;9232;27084;-15103279;-8605424;32716959;;;;
04_S3;04/05/2023;16:59:45;-9612;-1899;1428;-33112;-3433;27695;-1472672;-1347152;833395;Inactive;0;2006;
04_S3;04/05/2023;16:59:45;-9587;-2102;1628;-33112;-10986;7935;-1472672;-1347152;833395;;;;
04_S3;04/05/2023;16:59:45;-9624;-1892;1587;-9918;4730;7401;-175144;-633439;338612;;;;
04_S3;04/05/2023;16:59:45;-9617;-1948;1479;-4501;14038;6332;-59841;-576517;313800;;;;
04_S3;04/05/2023;16:59:45;-9636;-1907;1387;-11139;2594;7553;-36488;-576517;322557;;;;
04_S3;04/05/2023;16:59:46;-9409;-1924;1855;-36392;-6561;5264;-24812;-570679;328396;;;;
04_S3;04/05/2023;16:59:46;-9531;-1973;1665;-4044;10223;-10452;-24812;-570679;328396;;;;
04_S3;04/05/2023;16:59:46;-9749;-1887;1355;6638;12894;-4730;-24812;-585274;319638;;;;
04_S3;04/05/2023;16:59:46;-9519;-1914;1707;-33264;0;15564;-27731;-570679;319638;;;;
04_S3;04/05/2023;16:59:46;-9546;-1968;1821;-29373;4883;7172;-32110;-589653;335693;;;;
04_S3;04/05/2023;16:59:46;0;0;0;0;0;0;0;0;0;Inactive;;21;Power off command received.
