TagID,Date,Time,accX,accY,accZ,gyroX,gyroY,gyroZ,compX,compY,compZ,Activity,Depth,Temp. (?C),Metadata
04_S7,04/05/2023,16:59:14.000,-0.0842,-0.0901,-0.9094,-5.8365,-11.6959,-4.8523,7.7355,-48.3106,-76.6256,Active,8.71417946232389,-368.68,
04_S7,04/05/2023,16:59:14.100,-0.1428,-0.1177,-0.9609,7.8430,-35.2631,-0.0839,8.1734,-45.2456,-77.3554,,,,
04_S7,04/05/2023,16:59:14.200,-0.2312,-0.1348,-0.9580,2.1820,-51.2772,-8.0643,9.4870,-42.1806,-77.5014,,,,
04_S7,04/05/2023,16:59:14.300,-0.3604,-0.0991,-0.9304,-15.3732,-69.3359,9.7885,9.3410,-36.7803,-77.0635,,,,
04_S7,04/05/2023,16:59:14.400,-0.3948,-0.0940,-0.9082,-6.0654,-54.5425,7.4387,9.3410,-36.7803,-77.0635,,,,
04_S7,04/05/2023,16:59:14.500,-0.4294,-0.0886,-0.8857,3.2501,-39.7491,5.0888,9.3410,-36.7803,-77.0635,,,,
04_S7,04/05/2023,16:59:14.600,-0.4844,-0.1001,-0.8560,5.5237,-32.2418,7.6981,9.4870,-34.8829,-75.7499,,,,
04_S7,04/05/2023,16:59:14.700,-0.5286,-0.1035,-0.8293,11.0855,-34.1415,5.5389,9.0491,-33.8612,-74.4363,,,,
04_S7,04/05/2023,16:59:14.800,-0.6086,-0.1101,-0.7151,-3.7842,-56.3507,9.4986,8.0274,-29.3367,-72.2470,,,,
04_S7,04/05/2023,16:59:14.900,-0.6731,-0.0701,-0.6565,-6.1264,-62.3169,14.9460,8.9032,-25.2500,-69.9118,,,,
04_S7,04/05/2023,16:59:15.000,-0.7981,-0.0188,-0.6438,-5.6534,-60.2417,5.3177,8.9032,-25.2500,-69.9118,Inactive,0,23.9,
04_S7,04/05/2023,16:59:15.100,-0.8516,-0.0708,-0.4219,-28.3813,-120.7962,-13.4735,7.7355,-21.4552,-65.8251,,,,
04_S7,04/05/2023,16:59:15.200,-0.9333,-0.0659,-0.3081,-9.3460,-71.7545,-4.4556,8.0274,-17.3685,-57.3598,,,,
04_S7,04/05/2023,16:59:15.300,-0.9712,-0.0974,-0.2214,-12.8555,-55.6717,-14.7934,8.1734,-14.8873,-54.2947,,,,
04_S7,04/05/2023,16:59:15.400,-0.9595,-0.1167,-0.0728,-4.0054,-59.5245,-17.4713,9.9248,-13.7196,-48.4566,,,,
04_S7,04/05/2023,16:59:15.500,-0.9688,-0.1140,-0.0334,15.2130,-46.9055,-7.3318,9.9248,-13.7196,-48.4566,,,,
04_S7,04/05/2023,16:59:15.600,-0.9565,-0.1699,0.1179,9.5291,-75.5081,-10.5743,10.8006,-12.5520,-45.5375,,,,
04_S7,04/05/2023,16:59:15.700,-0.9568,-0.0916,0.2644,18.3182,-84.5642,23.6206,10.6546,-13.2818,-38.9696,,,,
04_S7,04/05/2023,16:59:15.800,-0.8965,-0.1147,0.4543,15.3046,-90.0192,-1.3428,10.2168,-16.3468,-31.8179,,,,
04_S7,04/05/2023,16:59:15.900,-0.8813,-0.1255,0.4868,-15.8310,-52.9709,-5.9052,9.7789,-16.2008,-27.0014,,,,
04_S7,04/05/2023,16:59:16.000,-0.7690,-0.1707,0.6150,-11.6119,-85.3577,-18.3716,9.7789,-16.2008,-27.0014,Inactive,0,23.9,
04_S7,04/05/2023,16:59:16.100,-0.6326,-0.2188,0.7317,6.6605,-95.3827,-33.0124,10.9465,-19.9956,-21.4552,,,,
04_S7,04/05/2023,16:59:16.200,-0.5107,-0.1970,0.8643,22.3389,-98.1522,-11.9934,11.5303,-24.6662,-16.4928,,,,
04_S7,04/05/2023,16:59:16.300,-0.3743,-0.1956,0.9944,1.5259,-101.0895,6.7596,11.5303,-30.7962,-12.6980,,,,
04_S7,04/05/2023,16:59:16.400,-0.2354,-0.1936,0.9592,-11.8179,-76.5915,20.1645,11.8222,-36.3424,-8.0274,,,,
04_S7,04/05/2023,16:59:16.500,-0.0991,-0.1775,1.0518,-16.8915,-78.3386,18.9362,11.8222,-36.3424,-8.0274,,,,
04_S7,04/05/2023,16:59:16.600,-0.0276,-0.1956,0.9834,1.0605,-54.1153,16.6092,12.8439,-42.9104,-8.1734,,,,
04_S7,04/05/2023,16:59:16.700,0.0769,-0.1760,1.0063,5.2795,-64.6820,15.4572,10.9465,-47.4349,-8.9032,,,,
04_S7,04/05/2023,16:59:16.800,0.1648,-0.1702,1.0115,9.7733,-41.4200,-0.9384,10.2168,-50.4999,-8.4653,,,,
04_S7,04/05/2023,16:59:16.900,0.1875,-0.1523,0.9844,13.4888,-26.5884,-2.3880,10.2168,-50.4999,-8.4653,,,,
04_S7,04/05/2023,16:59:17.000,0.2886,-0.0969,1.0571,20.5917,-40.9546,1.5335,10.3627,-52.9812,-8.3194,Inactive,0,23.93,
04_S7,04/05/2023,16:59:17.100,0.3445,-0.0999,0.9465,6.9656,-34.8434,6.7596,10.2168,-55.4624,-10.8006,,,,
04_S7,04/05/2023,16:59:17.200,0.4189,-0.1006,0.9551,-0.4501,-43.2205,0.9460,8.3194,-59.1112,-10.6546,,,,
04_S7,04/05/2023,16:59:17.300,0.4253,-0.0579,0.8879,5.0888,-20.9885,4.4403,8.9032,-59.6950,-11.2384,,,,
04_S7,04/05/2023,16:59:17.400,0.6519,-0.0925,0.9375,-16.4261,-113.5330,-8.4305,8.9032,-59.6950,-11.2384,,,,
04_S7,04/05/2023,16:59:17.500,0.6353,-0.1216,0.7935,-17.9214,-11.6043,-4.0817,9.1951,-65.5332,-15.0332,,,,
04_S7,04/05/2023,16:59:17.600,0.6704,-0.1230,0.7659,-13.3057,-20.6299,-8.0719,8.9032,-67.5765,-15.6170,,,,
04_S7,04/05/2023,16:59:17.700,0.7297,-0.1587,0.7039,-25.3830,-53.3142,0.7782,9.3410,-69.1820,-17.8063,,,,
04_S7,04/05/2023,16:59:17.800,0.8184,-0.1609,0.5671,-11.3602,-93.7424,0.3433,11.2384,-73.7066,-21.4552,,,,
04_S7,04/05/2023,16:59:17.900,0.8904,-0.1519,0.4338,4.8141,-86.3190,-2.6016,11.2384,-73.7066,-21.4552,,,,
04_S7,04/05/2023,16:59:18.000,0.9915,-0.1462,0.3286,2.2202,-77.4536,-10.1547,10.9465,-76.3337,-26.4176,Inactive,0,23.91,
04_S7,04/05/2023,16:59:18.100,0.9851,-0.1353,0.1929,-5.2872,-68.5806,-2.2583,10.2168,-78.2311,-31.2341,,,,
04_S7,04/05/2023,16:59:18.200,0.9692,-0.1780,0.0334,-8.6288,-61.5234,4.3793,10.8006,-80.2745,-36.4884,,,,
04_S7,04/05/2023,16:59:18.300,0.9944,-0.1433,-0.0161,-15.6937,-79.3533,2.0142,10.9465,-79.5447,-42.7644,,,,
04_S7,04/05/2023,16:59:18.400,0.9702,-0.1062,-0.1528,-4.7455,-54.0314,-5.1193,10.9465,-79.5447,-42.7644,,,,
04_S7,04/05/2023,16:59:18.500,0.9602,-0.1182,-0.2410,-5.0735,-49.5682,-3.8452,9.6329,-81.1502,-44.9537,,,,
04_S7,04/05/2023,16:59:18.600,0.9385,-0.1128,-0.3328,1.1749,-39.8407,-5.7831,9.6329,-79.9826,-48.7485,,,,
04_S7,04/05/2023,16:59:18.700,0.8950,-0.1125,-0.4373,1.0452,-64.0793,-0.0916,10.3627,-78.0852,-53.8569,,,,
04_S7,04/05/2023,16:59:18.800,0.8462,-0.1187,-0.4993,-11.0092,-60.4477,15.6097,10.6546,-76.6256,-57.9436,,,,
04_S7,04/05/2023,16:59:18.900,0.8142,-0.1287,-0.5842,-8.6212,-26.4130,11.0321,10.6546,-76.6256,-57.9436,,,,
04_S7,04/05/2023,16:59:19.000,0.7720,-0.1199,-0.5972,-0.7019,-41.2750,5.6229,11.8222,-76.3337,-58.8193,Inactive,0,23.96,
04_S7,04/05/2023,16:59:19.100,0.7139,-0.1343,-0.6753,-10.1089,-41.2521,6.8512,11.3844,-75.3121,-62.1762,,,,
04_S7,04/05/2023,16:59:19.200,0.6404,-0.0962,-0.7412,-2.7466,-43.8309,0.3738,11.0925,-74.4363,-63.3439,,,,
04_S7,04/05/2023,16:59:19.300,0.5835,-0.1040,-0.8005,-1.0834,-62.8281,-34.0652,9.3410,-70.0577,-68.8901,,,,
04_S7,04/05/2023,16:59:19.400,0.5173,-0.0916,-0.8611,-5.4016,-55.0995,-22.3923,9.3410,-70.0577,-68.8901,,,,
04_S7,04/05/2023,16:59:19.500,0.4238,-0.0530,-0.8828,-1.6022,-39.2532,0.6485,7.2977,-65.6791,-70.9334,,,,
04_S7,04/05/2023,16:59:19.600,0.3501,-0.0530,-0.9568,14.5493,-36.1252,-3.5095,8.0274,-64.0736,-72.2470,,,,
04_S7,04/05/2023,16:59:19.700,0.3035,-0.1267,-0.8975,10.2615,-41.3208,-11.5433,9.3410,-62.1762,-73.8525,,,,
04_S7,04/05/2023,16:59:19.800,0.2200,-0.0859,-0.9585,-3.6011,-43.6096,-9.4147,8.7572,-58.6733,-75.3121,,,,
04_S7,04/05/2023,16:59:19.900,0.1396,-0.0408,-0.9714,-5.0049,-38.6505,-7.0572,8.7572,-58.6733,-75.3121,,,,
04_S7,04/05/2023,16:59:20.000,0.0320,-0.0598,-0.9678,-2.8229,-35.7285,-10.6201,6.7139,-52.5433,-77.0635,Inactive,0,23.94,
04_S7,04/05/2023,16:59:20.100,-0.0103,-0.0630,-0.9490,-1.5564,-29.5563,-5.4016,7.8815,-49.0404,-77.3554,,,,
04_S7,04/05/2023,16:59:20.200,-0.0864,-0.0491,-0.9734,-9.4681,-29.7089,9.3460,7.1517,-46.8511,-75.7499,,,,
04_S7,04/05/2023,16:59:20.300,-0.1479,-0.0754,-0.9993,-1.2207,-64.8422,10.0937,7.1517,-46.8511,-75.7499,,,,
04_S7,04/05/2023,16:59:20.400,-0.2942,-0.0613,-0.9448,14.0839,-52.2842,9.4147,7.4436,-42.1806,-76.3337,,,,
04_S7,04/05/2023,16:59:20.500,-0.3472,-0.0498,-0.9385,21.7896,-54.5654,0.1526,8.6113,-40.7211,-76.3337,,,,
04_S7,04/05/2023,16:59:20.600,-0.4690,-0.1172,-0.8613,-2.8610,-49.8276,5.8289,9.9248,-35.9046,-75.8959,,,,
04_S7,04/05/2023,16:59:20.700,-0.5259,-0.0718,-0.8823,-0.9079,-36.9263,17.4942,9.9248,-35.9046,-75.8959,,,,
04_S7,04/05/2023,16:59:20.800,-0.5730,-0.0479,-0.7852,-5.9052,-46.0892,8.3237,9.1951,-33.1315,-75.1661,,,,
04_S7,04/05/2023,16:59:20.900,-0.6157,-0.0356,-0.7427,5.0583,-41.5726,0.4196,8.7572,-29.1907,-72.9768,,,,
04_S7,04/05/2023,16:59:21.000,-0.7188,-0.1018,-0.6531,12.9547,-58.5709,-8.6670,9.7789,-26.7095,-70.4956,Inactive,0,23.96,
04_S7,04/05/2023,16:59:21.100,-0.7820,-0.1050,-0.5720,-0.1602,-65.6128,-2.7771,9.9248,-22.1849,-67.4306,,,,
04_S7,04/05/2023,16:59:21.200,-0.8530,-0.1277,-0.4116,-2.3193,-78.1326,-2.0752,9.9248,-22.1849,-67.4306,,,,
04_S7,04/05/2023,16:59:21.300,-0.9282,-0.1094,-0.3838,7.7286,-55.1071,0.6714,9.6329,-19.2659,-62.4681,,,,
04_S7,04/05/2023,16:59:21.400,-0.9192,-0.1436,-0.2500,7.8049,-69.3665,-5.9967,11.3844,-16.3468,-57.7976,,,,
04_S7,04/05/2023,16:59:21.500,-0.9678,-0.1138,-0.0850,-17.0746,-87.6923,12.6495,10.6546,-14.7413,-51.2297,,,,
04_S7,04/05/2023,16:59:21.600,-0.9890,-0.1038,0.0144,-16.1438,-60.1807,-4.4022,10.0708,-13.5737,-47.1430,,,,
04_S7,04/05/2023,16:59:21.700,-0.9761,-0.1306,0.0920,-14.4577,-46.6614,-8.5678,10.0708,-13.5737,-47.1430,,,,
04_S7,04/05/2023,16:59:21.800,-0.9487,-0.1538,0.1650,-13.1226,-37.5671,-2.1286,11.9682,-13.1358,-42.6185,,,,
04_S7,04/05/2023,16:59:21.900,-0.9551,-0.1433,0.2148,-9.5673,-48.3932,10.4675,9.4870,-12.6980,-39.5534,,,,
04_S7,04/05/2023,16:59:22.000,-0.9282,-0.0789,0.4033,6.5994,-81.4514,17.7078,8.3194,-14.4494,-33.1315,Inactive,0,23.98,
04_S7,04/05/2023,16:59:22.100,-0.8777,-0.0759,0.5271,1.8768,-67.3599,10.2158,8.3194,-17.3685,-27.8771,,,,
04_S7,04/05/2023,16:59:22.200,-0.8354,-0.0698,0.5740,16.4871,-44.8380,6.6147,8.3194,-17.3685,-27.8771,,,,
04_S7,04/05/2023,16:59:22.300,-0.8149,-0.0137,0.5930,0.6866,-35.9421,15.0452,7.2977,-19.5578,-26.5636,,,,
04_S7,04/05/2023,16:59:22.400,-0.7556,-0.0010,0.7026,10.4218,-52.6276,-10.3302,6.2760,-19.9956,-24.0823,,,,
04_S7,04/05/2023,16:59:22.500,-0.6555,-0.0508,0.7854,23.7350,-82.3669,-40.0925,7.7355,-23.7904,-21.4552,,,,
04_S7,04/05/2023,16:59:22.600,-0.5339,-0.1194,0.9041,-3.9291,-71.2585,-29.1290,8.4653,-26.5636,-15.1792,,,,
04_S7,04/05/2023,16:59:22.700,-0.4495,-0.0767,0.9067,7.5760,-33.7448,1.2970,8.4653,-26.5636,-15.1792,,,,
04_S7,04/05/2023,16:59:22.800,-0.4148,-0.0369,0.9060,1.8082,-36.0336,5.8899,7.5896,-28.6069,-16.3468,,,,
04_S7,04/05/2023,16:59:22.900,-0.3384,-0.1040,0.9644,-22.4686,-47.0276,-1.8768,9.4870,-31.3800,-14.4494,,,,
04_S7,04/05/2023,16:59:23.000,-0.2407,-0.1335,0.9827,-15.8997,-46.2341,-4.7760,9.9248,-33.2774,-12.2601,Inactive,0,23.99,
04_S7,04/05/2023,16:59:23.100,-0.1697,-0.1797,1.0547,-6.7825,-44.6014,-7.0572,11.0925,-38.2398,-9.6329,,,,
04_S7,04/05/2023,16:59:23.200,-0.0793,-0.1426,1.0469,5.0583,-49.8962,-7.8964,11.0925,-38.2398,-9.6329,,,,
04_S7,04/05/2023,16:59:23.300,-0.0039,-0.1526,1.0391,-2.8610,-39.2838,-6.0272,11.3844,-41.1589,-9.9248,,,,
04_S7,04/05/2023,16:59:23.400,0.0649,-0.1509,1.0198,-3.5782,-40.3976,-12.3367,10.8006,-43.4942,-9.9248,,,,
04_S7,04/05/2023,16:59:23.500,0.2048,-0.2427,0.8623,-38.6887,-97.9691,28.4195,14.0115,-49.3323,-7.5896,,,,
04_S7,04/05/2023,16:59:23.600,0.3867,-0.2539,0.9773,-23.3459,-122.6273,35.8276,13.1358,-58.3814,-8.1734,,,,
04_S7,04/05/2023,16:59:23.700,0.5212,-0.2468,0.8635,5.2948,-69.0918,-9.3842,13.1358,-58.3814,-8.1734,,,,
04_S7,04/05/2023,16:59:23.800,0.6101,-0.2166,0.8042,13.5727,-60.7681,-3.6087,13.1358,-63.0520,-11.6763,,,,
04_S7,04/05/2023,16:59:23.900,0.6670,-0.2122,0.7141,18.2419,-56.9229,-5.5161,13.1358,-66.2629,-13.4277,,,,
04_S7,04/05/2023,16:59:24.000,0.7727,-0.1604,0.6909,12.9700,-82.9315,-9.1476,12.2601,-70.0577,-18.9740,Inactive,0,24,
04_S7,04/05/2023,16:59:24.100,0.8608,-0.1240,0.6011,9.6359,-46.4859,-23.3154,9.1951,-71.9551,-21.1633,,,,
04_S7,04/05/2023,16:59:24.200,0.9014,-0.0925,0.5154,5.6839,-43.5638,-11.2762,9.1951,-71.9551,-21.1633,,,,
04_S7,04/05/2023,16:59:24.300,0.9592,-0.0488,0.4426,23.0408,-83.7784,-12.5885,8.4653,-74.1444,-24.8121,,,,
04_S7,04/05/2023,16:59:24.400,0.9451,-0.0718,0.2627,-11.5204,-53.5126,1.0605,8.4653,-77.0635,-28.8988,,,,
04_S7,04/05/2023,16:59:24.500,1.0156,-0.0718,0.2065,-19.3176,-62.6907,5.3864,9.3410,-78.5230,-32.6936,,,,
04_S7,04/05/2023,16:59:24.600,1.0195,-0.0779,0.0469,-5.0430,-74.9359,-2.8992,9.3410,-78.5230,-32.6936,,,,
04_S7,04/05/2023,16:59:24.700,0.9712,-0.0396,-0.0417,-5.4550,-56.2668,-1.7624,8.9032,-79.8366,-38.9696,,,,
04_S7,04/05/2023,16:59:24.800,0.9805,-0.0859,-0.1990,8.3618,-71.8613,6.7215,8.4653,-79.3988,-42.0346,,,,
04_S7,04/05/2023,16:59:24.900,0.9319,-0.0850,-0.3208,-5.2338,-72.8912,5.1804,10.0708,-77.7933,-48.0187,,,,
04_S7,04/05/2023,16:59:25.000,0.9077,-0.0779,-0.4109,4.8904,-91.2933,4.4861,9.9248,-77.3554,-53.4190,Inactive,0,24.02,
04_S7,04/05/2023,16:59:25.100,0.8250,-0.0854,-0.5193,3.3493,-51.3687,-5.5618,9.9248,-77.3554,-53.4190,,,,
04_S7,04/05/2023,16:59:25.200,0.7747,-0.0942,-0.5925,-2.7008,-43.8385,5.6152,9.6329,-75.6040,-58.6733,,,,
04_S7,04/05/2023,16:59:25.300,0.7432,-0.0896,-0.6467,-6.7825,-20.8282,8.9569,9.1951,-75.1661,-59.9869,,,,
04_S7,04/05/2023,16:59:25.400,0.6877,-0.1155,-0.6846,-7.0114,-29.3198,6.6605,8.7572,-73.8525,-62.1762,,,,
04_S7,04/05/2023,16:59:25.500,0.6716,-0.0798,-0.7078,-20.1645,-45.4025,30.9296,11.5303,-72.2470,-64.6574,,,,
04_S7,04/05/2023,16:59:25.600,0.6040,-0.0117,-0.7915,-39.7568,-42.9153,7.4158,11.5303,-72.2470,-64.6574,,,,
04_S7,04/05/2023,16:59:25.700,0.5547,-0.0381,-0.8179,1.1520,-34.7443,-24.0631,10.3627,-71.9551,-66.4089,,,,
04_S7,04/05/2023,16:59:25.800,0.4678,-0.0161,-0.8601,4.3030,-25.6119,-16.4795,9.1951,-69.0361,-67.2846,,,,
04_S7,04/05/2023,16:59:25.900,0.4629,-0.0232,-0.8726,1.6479,-25.5966,-18.4860,7.8815,-66.8467,-68.8901,,,,
04_S7,04/05/2023,16:59:26.000,0.4097,-0.0249,-0.8789,-1.5717,-23.9029,-19.5084,7.5896,-64.8034,-69.7658,Inactive,0,24.04,
04_S7,04/05/2023,16:59:26.100,0.3538,0.0183,-0.8840,-1.2894,-36.1328,-34.9503,7.5896,-64.8034,-69.7658,,,,
04_S7,04/05/2023,16:59:26.200,0.3398,0.0737,-0.9878,-10.3531,-31.2729,-32.2800,5.1084,-60.5707,-70.4956,,,,
04_S7,04/05/2023,16:59:26.300,0.2556,0.0696,-0.8884,-3.2196,-30.7922,-17.1127,5.8381,-60.4248,-72.3930,,,,
04_S7,04/05/2023,16:59:26.400,0.1943,0.1123,-0.9268,-22.4609,-40.2832,-3.3951,2.6272,-56.0462,-72.9768,,,,
04_S7,04/05/2023,16:59:26.500,0.1016,0.0591,-0.9304,12.4893,-45.3033,-16.7007,4.2327,-52.6892,-73.9985,,,,
04_S7,04/05/2023,16:59:26.600,0.0117,0.0310,-0.9739,39.5279,-34.2102,-4.5319,4.2327,-52.6892,-73.9985,,,,
04_S7,04/05/2023,16:59:26.700,-0.1025,-0.0754,-0.9814,37.0789,-64.7583,22.4380,6.1301,-49.3323,-76.4797,,,,
04_S7,04/05/2023,16:59:26.800,-0.1541,-0.0095,-0.9878,-6.1951,-55.1071,28.6636,8.3194,-45.9754,-76.6256,,,,
04_S7,04/05/2023,16:59:26.900,-0.2834,-0.0510,-0.9290,17.4484,-47.6761,1.4648,8.9032,-41.0130,-74.8742,,,,
04_S7,04/05/2023,16:59:27.000,-0.3831,-0.0374,-0.8579,-6.1798,-70.0531,13.0157,8.7572,-36.4884,-75.3121,Inactive,0,24.06,
04_S7,04/05/2023,16:59:27.100,-0.4963,0.0061,-0.8403,-39.2685,-75.3708,10.2692,8.7572,-36.4884,-75.3121,,,,
04_S7,04/05/2023,16:59:27.200,-0.6206,0.0217,-0.8135,-10.0098,-72.5632,-4.2191,4.9624,-31.2341,-71.5173,,,,
04_S7,04/05/2023,16:59:27.300,-0.6853,-0.0090,-0.6460,1.1292,-50.1404,-8.9340,5.4003,-27.8771,-69.0361,,,,
04_S7,04/05/2023,16:59:27.400,-0.7380,-0.0090,-0.6636,21.5454,-30.4794,-3.7384,7.7355,-25.8338,-68.4522,,,,
04_S7,04/05/2023,16:59:27.500,-0.7837,-0.0618,-0.5630,41.9769,-58.5175,-8.3160,9.7789,-22.0390,-65.5332,,,,
04_S7,04/05/2023,16:59:27.600,-0.8340,-0.1846,-0.3975,38.0936,-85.4111,-16.4948,9.7789,-22.0390,-65.5332,,,,
04_S7,04/05/2023,16:59:27.700,-0.9124,-0.1418,-0.3281,-4.1199,-54.0543,-1.6556,11.0925,-18.3902,-61.3005,,,,
04_S7,04/05/2023,16:59:27.800,-0.9324,-0.1729,-0.2615,4.1504,-57.8537,-9.8343,10.6546,-16.4928,-57.3598,,,,
04_S7,04/05/2023,16:59:27.900,-0.9338,-0.1985,-0.1323,8.8272,-67.4286,-4.7302,12.8439,-14.5954,-51.6676,,,,
04_S7,04/05/2023,16:59:28.000,-0.9685,-0.1641,0.0063,-3.3951,-71.2433,17.7078,10.8006,-12.8439,-47.8728,Inactive,0,24.05,
04_S7,04/05/2023,16:59:28.100,-0.9990,-0.1299,0.1064,-4.4785,-50.5676,9.1248,10.8006,-12.8439,-47.8728,,,,
04_S7,04/05/2023,16:59:28.200,-0.9668,-0.1421,0.1433,-13.2828,-34.9808,-1.3351,11.2384,-12.4061,-42.7644,,,,
04_S7,04/05/2023,16:59:28.300,-0.9546,-0.1431,0.2124,-17.9214,-49.7437,8.4839,10.9465,-13.2818,-40.7211,,,,
04_S7,04/05/2023,16:59:28.400,-0.9177,-0.1331,0.3503,-11.6730,-64.1632,13.9542,9.9248,-13.7196,-33.8612,,,,
04_S7,04/05/2023,16:59:28.500,-0.9233,-0.1179,0.4272,2.3575,-44.6854,12.5809,9.9248,-13.7196,-33.8612,,,,
04_S7,04/05/2023,16:59:28.600,-0.8696,-0.0693,0.5095,13.6871,-35.4233,-3.4409,9.9248,-13.7196,-33.8612,,,,
04_S7,04/05/2023,16:59:28.700,-0.8679,-0.0962,0.5461,7.6981,-37.7884,-5.7144,9.4870,-16.4928,-28.7529,,,,
04_S7,04/05/2023,16:59:28.800,-0.8096,-0.1160,0.5791,0.3128,-20.5917,-3.1586,10.0708,-18.2442,-26.4176,,,,
04_S7,04/05/2023,16:59:28.900,-0.8005,-0.1436,0.6421,-2.4719,-25.7950,-8.8425,9.7789,-17.6604,-24.6662,,,,
04_S7,04/05/2023,16:59:29.000,-0.7588,-0.1060,0.6431,-3.6392,-24.7421,2.0523,9.7789,-17.6604,-24.6662,Inactive,0,24.08,
04_S7,04/05/2023,16:59:29.100,-0.6982,-0.1206,0.7109,-0.4959,-52.6733,-10.2463,9.4870,-19.1199,-21.4552,,,,
04_S7,04/05/2023,16:59:29.200,-0.6062,-0.1123,0.7878,14.2136,-57.7469,-5.1117,11.3844,-20.7254,-18.0982,,,,
04_S7,04/05/2023,16:59:29.300,-0.5710,-0.1313,0.8987,13.9847,-58.4412,-7.3929,9.0491,-24.5202,-15.4711,,,,
04_S7,04/05/2023,16:59:29.400,-0.4702,-0.0674,0.8604,18.0206,-43.5104,2.5635,7.2977,-25.3959,-14.0115,,,,
04_S7,04/05/2023,16:59:29.500,-0.4053,-0.0601,0.9241,6.3019,-30.6244,3.5934,7.2977,-25.3959,-14.0115,,,,
04_S7,04/05/2023,16:59:29.600,-0.3481,-0.0251,0.9673,6.8893,-35.1486,2.2125,8.1734,-28.6069,-12.8439,,,,
04_S7,04/05/2023,16:59:29.700,-0.3435,-0.0256,0.9753,15.3275,-20.3247,0.4120,8.0274,-30.5043,-12.4061,,,,
04_S7,04/05/2023,16:59:29.800,-0.2942,-0.0063,0.9844,14.6790,-37.8189,-6.6833,6.7139,-32.4017,-11.6763,,,,
04_S7,04/05/2023,16:59:29.900,-0.1331,0.0173,1.0037,3.1433,-16.7770,11.5509,5.6922,-34.0072,-10.6546,,,,
04_S7,04/05/2023,16:59:30.000,-0.2056,0.0359,0.9619,-1.8311,-22.8500,0.2899,5.6922,-34.0072,-10.6546,Inactive,0,24.08,
04_S7,04/05/2023,16:59:30.100,-0.0642,-0.0461,1.0518,-22.6212,-10.6277,10.0937,5.4003,-36.6344,-10.3627,,,,
04_S7,04/05/2023,16:59:30.200,-0.1487,-0.0435,0.9915,-13.3057,-20.4315,-0.9460,7.1517,-36.9263,-10.3627,,,,
04_S7,04/05/2023,16:59:30.300,-0.1189,-0.0662,1.0486,-19.7296,-15.3351,7.9727,8.1734,-38.2398,-8.4653,,,,
04_S7,04/05/2023,16:59:30.400,-0.0344,-0.1211,1.0581,-29.4647,-25.6729,15.4648,12.2601,-39.9913,-7.2977,,,,
04_S7,04/05/2023,16:59:30.500,-0.0029,-0.1228,1.0288,-0.4120,-30.2353,20.8969,12.2601,-39.9913,-7.2977,,,,
04_S7,04/05/2023,16:59:30.600,0.0168,-0.0859,1.0557,16.8304,-20.0272,15.0986,9.0491,-44.0780,-7.5896,,,,
04_S7,04/05/2023,16:59:30.700,0.0337,-0.0957,1.0376,2.5406,-1.7853,5.4474,9.4870,-44.8078,-8.6113,,,,
04_S7,04/05/2023,16:59:30.800,0.0339,-0.1084,1.0125,-3.0518,4.4479,4.0359,9.3410,-45.2456,-8.4653,,,,
04_S7,04/05/2023,16:59:30.900,0.0266,-0.0710,1.0471,-0.2289,6.8207,4.5929,9.4870,-44.5158,-7.7355,,,,
04_S7,04/05/2023,16:59:31.000,-0.0002,-0.1021,1.0198,-4.2419,11.2534,6.6071,9.4870,-44.5158,-7.7355,Inactive,0,24.06,
04_S7,04/05/2023,16:59:31.100,-0.0173,-0.0950,1.0195,2.5864,13.0234,5.9738,7.8815,-43.7861,-8.1734,,,,
04_S7,04/05/2023,16:59:31.200,-0.0364,-0.0974,1.0532,8.8654,3.0365,5.0812,4.6705,-40.8670,-13.1358,,,,
04_S7,04/05/2023,16:59:31.300,-0.0151,-0.0569,1.0398,8.2474,-4.5166,2.0447,32.5477,-85.9667,-36.9263,,,,
04_S7,04/05/2023,16:59:31.400,-0.0010,-0.0344,1.0457,6.6833,-0.8926,1.9913,432.3146,-425.8926,453.6238,,,,
04_S7,04/05/2023,16:59:31.500,0.0090,-0.0029,1.0757,9.1553,-2.5635,2.8763,432.3146,-425.8926,453.6238,,,,
04_S7,04/05/2023,16:59:31.600,0.0195,-0.0176,1.0369,1.0300,-2.4948,2.4338,493.0313,-907.2476,3874.7762,,,,TIMEMARK!
04_S7,04/05/2023,16:59:31.700,0.0286,-0.0181,1.0374,0.4044,-1.8692,1.6785,0.0000,0.0000,4782.0238,,,,
04_S7,04/05/2023,16:59:31.800,0.0271,-0.0129,1.0398,-0.1907,1.3428,0.5341,722.3244,-1271.6937,3510.3300,,,,
04_S7,04/05/2023,16:59:31.900,0.0293,-0.0122,1.0474,0.1144,2.5253,0.4196,1077.7214,-1831.7177,2950.3061,,,,
04_S7,04/05/2023,16:59:32.000,0.0254,-0.0134,1.0442,-1.0605,1.1978,1.5488,1077.7214,-1831.7177,2950.3061,Inactive,0,24.14,
04_S7,04/05/2023,16:59:32.100,0.0264,-0.0125,1.0493,-0.0992,3.0823,0.0229,1262.7905,-2555.3556,2226.6681,,,,
04_S7,04/05/2023,16:59:32.200,0.0251,-0.0110,1.0471,0.0916,1.5411,0.2213,1194.9221,-2792.5302,1989.4935,,,,
04_S7,04/05/2023,16:59:32.300,0.0291,-0.0024,1.0552,0.3128,-0.2518,0.1602,975.5539,-3232.8722,1549.1515,,,,
04_S7,04/05/2023,16:59:32.400,0.0259,-0.0029,1.0464,-0.2060,1.5259,0.5417,975.5539,-3232.8722,1549.1515,,,,
04_S7,04/05/2023,16:59:32.500,0.0303,-0.0066,1.0403,-1.2512,2.0676,0.3204,1005.6203,-3776.4034,1005.6203,,,,
04_S7,04/05/2023,16:59:32.600,0.0251,-0.0056,1.0505,-0.0610,1.4114,0.2518,932.4976,-3849.5262,932.4976,,,,
04_S7,04/05/2023,16:59:32.700,0.0332,-0.0068,1.0400,-0.7477,1.2054,-0.1602,767.2781,-3562.5814,1219.4423,,,,
04_S7,04/05/2023,16:59:32.800,0.0266,-0.0012,1.0527,-1.4801,1.6937,0.1755,513.0269,-3542.7317,1239.2920,,,,
04_S7,04/05/2023,16:59:32.900,0.0291,0.0112,1.0396,-1.2970,2.7542,0.5951,513.0269,-3542.7317,1239.2920,,,,
04_S7,04/05/2023,16:59:33.000,0.0259,-0.0088,1.0486,0.6256,3.6697,2.9678,865.5048,-1432.0967,988.9816,Inactive,0,24.17,
04_S7,04/05/2023,16:59:33.100,0.0298,-0.0049,1.0586,0.3815,2.6321,1.1749,24.2283,-70.9334,-11.6763,,,,
04_S7,04/05/2023,16:59:33.200,0.0388,-0.0015,1.0193,-2.4033,1.2283,1.4648,9.6329,-46.1213,8.1734,,,,
04_S7,04/05/2023,16:59:33.300,0.0427,-0.0066,1.0005,0.5569,0.2823,5.3101,10.9465,-48.0187,10.9465,,,,
04_S7,04/05/2023,16:59:33.400,0.0479,0.0122,1.0710,6.0043,-4.5853,7.7057,10.9465,-48.0187,10.9465,,,,
04_S7,04/05/2023,16:59:33.500,0.0217,0.0049,1.0737,-0.7858,3.5400,3.8223,9.1951,-48.0187,11.2384,,,,
04_S7,04/05/2023,16:59:33.600,0.0325,0.0090,1.0500,-3.6545,4.0436,-0.2518,11.0925,-47.2890,11.9682,,,,
04_S7,04/05/2023,16:59:33.700,0.0388,0.0220,1.0442,-3.9291,2.7924,-0.0839,11.3844,-46.9971,12.2601,,,,
04_S7,04/05/2023,16:59:33.800,0.0212,-0.0061,1.0312,-3.7384,2.6474,2.5787,10.8006,-47.8728,11.0925,,,,
04_S7,04/05/2023,16:59:33.900,0.0298,0.0073,1.0525,0.6027,2.2507,0.0153,10.8006,-47.8728,11.0925,,,,
04_S7,04/05/2023,16:59:34.000,0.0000,0.0000,0.0000,0.0000,0.0000,0.0000,0.0000,0.0000,0.0000,Inactive,,21,Power off command received.
