TagID,Date,Time,accX,accY,accZ,gyroX,gyroY,gyroZ,compX,compY,compZ,Activity,Depth,Temp. (?C),Metadata
04_S9,04/05/2023,16:59:14.000,-0.0146,0.0320,0.9893,-2.9831,0.0229,-8.8120,14.4494,-16.4928,-14.4494,Active,8.89263750755994,-368.68,
04_S9,04/05/2023,16:59:14.100,0.0073,0.0386,1.0442,-4.7379,-2.1362,-25.6271,14.5954,-16.9306,-14.3035,,,,
04_S9,04/05/2023,16:59:14.200,-0.0059,0.0286,1.0310,-4.6768,4.4937,-31.4178,14.0115,-17.5144,-15.7630,,,,
04_S9,04/05/2023,16:59:14.300,-0.0171,0.0576,1.0254,-2.5101,4.3488,-47.2794,13.1358,-17.2225,-14.0115,,,,
04_S9,04/05/2023,16:59:14.400,-0.0142,0.0378,1.0327,-1.6937,3.3264,-52.9251,13.1358,-17.2225,-14.0115,,,,
04_S9,04/05/2023,16:59:14.500,-0.0110,0.0178,1.0400,-0.8774,2.2964,-58.5785,13.1358,-17.2225,-14.0115,,,,
04_S9,04/05/2023,16:59:14.600,-0.0076,-0.0017,1.0476,-2.1973,3.3646,-39.4745,13.5737,-19.1199,-14.4494,,,,
04_S9,04/05/2023,16:59:14.700,-0.0161,0.0195,1.0447,-1.4114,3.1433,-31.7001,12.5520,-19.2659,-14.5954,,,,
04_S9,04/05/2023,16:59:14.800,-0.0171,0.0249,1.0408,-1.4954,1.4725,-45.6848,13.5737,-19.7037,-14.7413,,,,
04_S9,04/05/2023,16:59:14.900,-0.0161,0.0098,1.0439,-2.4796,1.6937,-53.7109,10.0708,-20.5795,-13.8656,,,,
04_S9,04/05/2023,16:59:15.000,-0.0166,0.0127,1.0378,-2.7161,2.5787,-46.0281,10.0708,-20.5795,-13.8656,Inactive,0,24.98,
04_S9,04/05/2023,16:59:15.100,-0.0234,0.0100,1.0398,-3.1967,3.9215,-42.3203,10.5087,-21.0173,-14.5954,,,,
04_S9,04/05/2023,16:59:15.200,-0.0242,-0.0090,1.0354,-3.8452,4.9438,-44.6625,8.4653,-21.6011,-14.3035,,,,
04_S9,04/05/2023,16:59:15.300,-0.0308,0.0005,1.0352,-1.8158,2.6093,-35.3851,8.0274,-21.1633,-12.6980,,,,
04_S9,04/05/2023,16:59:15.400,-0.0188,-0.0310,1.0330,-2.7237,3.6240,-36.0260,7.1517,-20.5795,-15.3251,,,,
04_S9,04/05/2023,16:59:15.500,-0.0225,-0.0151,1.0378,-0.5951,0.5798,-28.9536,7.1517,-20.5795,-15.3251,,,,
04_S9,04/05/2023,16:59:15.600,-0.0305,-0.0112,1.0430,-1.1749,0.8316,-32.3563,7.2977,-21.3092,-14.3035,,,,
04_S9,04/05/2023,16:59:15.700,-0.0227,-0.0190,1.0378,-2.1210,0.9995,-36.0489,4.6705,-21.8930,-13.1358,,,,
04_S9,04/05/2023,16:59:15.800,-0.0146,-0.0291,1.0398,-3.4714,1.2894,-32.6538,4.5246,-21.4552,-14.1575,,,,
04_S9,04/05/2023,16:59:15.900,-0.0007,-0.0269,1.0332,-3.4332,0.8850,-25.8560,4.5246,-21.7471,-13.5737,,,,
04_S9,04/05/2023,16:59:16.000,0.0022,-0.0081,1.0276,-3.2883,1.0605,-35.8276,4.5246,-21.7471,-13.5737,Inactive,0,24.94,
04_S9,04/05/2023,16:59:16.100,0.0071,-0.0420,1.0466,-5.5771,1.6632,-51.3916,3.6488,-20.5795,-12.1141,,,,
04_S9,04/05/2023,16:59:16.200,0.0012,-0.0632,1.0481,-4.9591,4.1199,-37.4985,1.8974,-19.9956,-12.4061,,,,
04_S9,04/05/2023,16:59:16.300,0.0002,-0.0366,1.0452,-5.7220,4.1504,-29.0146,3.6488,-19.9956,-13.5737,,,,
04_S9,04/05/2023,16:59:16.400,0.0051,-0.0801,1.0422,-6.6528,4.3869,-47.1039,2.0434,-18.6821,-11.6763,,,,
04_S9,04/05/2023,16:59:16.500,0.0237,-0.0796,1.0540,5.5695,1.0834,-22.9645,2.0434,-18.6821,-11.6763,,,,
04_S9,04/05/2023,16:59:16.600,0.0098,-0.0337,1.0420,5.9891,0.4959,5.4169,1.4595,-18.0982,-11.3844,,,,
04_S9,04/05/2023,16:59:16.700,0.0127,-0.0393,1.0415,1.0147,2.8305,0.5341,1.0217,-18.5361,-12.4061,,,,
04_S9,04/05/2023,16:59:16.800,0.0044,-0.0369,1.0312,-0.1755,3.7155,-0.9155,-0.7298,-17.6604,-13.5737,,,,
04_S9,04/05/2023,16:59:16.900,-0.0066,-0.0417,1.0315,0.2594,3.5172,-0.6027,-0.7298,-17.6604,-13.5737,,,,
04_S9,04/05/2023,16:59:17.000,0.0000,-0.0286,1.0347,0.2823,1.8234,0.6714,1.0217,-17.9523,-12.9899,Inactive,0,24.96,
04_S9,04/05/2023,16:59:17.100,0.0046,-0.0388,1.0403,2.7161,-2.6016,-6.8893,1.7514,-18.0982,-13.1358,,,,
04_S9,04/05/2023,16:59:17.200,0.0261,-0.0132,1.0398,4.9362,-4.2877,-17.3340,0.4379,-17.9523,-12.6980,,,,
04_S9,04/05/2023,16:59:17.300,0.0403,-0.0188,1.0513,-4.8218,0.5188,-41.8930,0.0000,-18.3902,-13.1358,,,,
04_S9,04/05/2023,16:59:17.400,0.0298,-0.0190,1.0469,-4.3411,8.1482,-55.0995,0.0000,-18.3902,-13.1358,,,,
04_S9,04/05/2023,16:59:17.500,0.0210,-0.0254,1.0454,-2.0294,6.1569,-64.5370,-0.8757,-16.3468,-12.8439,,,,
04_S9,04/05/2023,16:59:17.600,0.0249,-0.0264,1.0464,-2.2430,1.7548,-63.6673,-1.0217,-15.9089,-13.5737,,,,
04_S9,04/05/2023,16:59:17.700,0.0320,-0.0266,1.0457,-2.9831,-0.3891,-68.1076,-2.0434,-12.5520,-11.6763,,,,
04_S9,04/05/2023,16:59:17.800,0.0366,-0.0339,1.0452,-4.1885,-2.9373,-65.0787,-2.1893,-11.2384,-12.1141,,,,
04_S9,04/05/2023,16:59:17.900,0.0520,-0.0361,1.0388,-3.9597,-2.2507,-62.3093,-2.1893,-11.2384,-12.1141,,,,
04_S9,04/05/2023,16:59:18.000,0.0640,-0.0312,1.0454,-3.6011,-0.0229,-63.2477,-2.1893,-10.6546,-13.2818,Inactive,0,24.96,
04_S9,04/05/2023,16:59:18.100,0.0745,-0.0317,1.0403,-7.5684,3.8757,-58.7769,-0.4379,-8.6113,-13.2818,,,,
04_S9,04/05/2023,16:59:18.200,0.0591,-0.0378,1.0288,-4.4174,9.8953,-54.9393,-0.1460,-6.8598,-12.9899,,,,
04_S9,04/05/2023,16:59:18.300,0.0474,-0.0303,1.0254,-1.1673,6.3095,-56.4651,0.1460,-6.5679,-12.4061,,,,
04_S9,04/05/2023,16:59:18.400,0.0530,-0.0117,1.0303,0.6561,3.2654,-73.6084,0.1460,-6.5679,-12.4061,,,,
04_S9,04/05/2023,16:59:18.500,0.0605,-0.0300,1.0327,-0.1831,3.4180,-90.9653,2.3353,-4.3786,-12.2601,,,,
04_S9,04/05/2023,16:59:18.600,0.0571,0.0129,1.0361,-4.0283,-1.0147,-33.7219,3.0650,-3.0650,-12.6980,,,,
04_S9,04/05/2023,16:59:18.700,0.0461,0.0081,1.0283,-5.0735,2.9449,-23.0865,3.5029,-3.2110,-12.5520,,,,
04_S9,04/05/2023,16:59:18.800,0.0488,-0.0103,1.0269,-2.6016,7.0419,-58.6395,4.3786,-3.5029,-12.2601,,,,
04_S9,04/05/2023,16:59:18.900,0.0625,-0.0137,1.0417,-2.1515,3.9749,-61.8286,4.3786,-3.5029,-12.2601,,,,
04_S9,04/05/2023,16:59:19.000,0.0723,-0.0181,1.0471,-1.6708,-0.9842,-38.8031,7.2977,-1.7514,-11.3844,Inactive,0,24.98,
04_S9,04/05/2023,16:59:19.100,0.0703,-0.0125,1.0520,-2.7008,-1.5106,-26.7258,7.8815,-1.4595,-11.6763,,,,
04_S9,04/05/2023,16:59:19.200,0.0884,-0.0078,1.0554,-2.7313,1.3962,9.8953,8.0274,-0.7298,-10.9465,,,,
04_S9,04/05/2023,16:59:19.300,0.0728,-0.0420,1.0474,-5.7297,-2.5253,4.6082,8.0274,-0.7298,-10.9465,,,,
04_S9,04/05/2023,16:59:19.400,0.0842,-0.0447,1.0391,-2.4948,1.7776,1.9836,8.7572,-2.3353,-11.0925,,,,
04_S9,04/05/2023,16:59:19.500,0.0833,-0.0251,1.0317,0.5722,2.3193,4.5929,7.5896,-2.3353,-11.9682,,,,
04_S9,04/05/2023,16:59:19.600,0.0642,0.0083,1.0508,0.5722,5.6152,-11.1923,7.8815,-1.1676,-11.9682,,,,
04_S9,04/05/2023,16:59:19.700,0.0522,-0.0100,1.0303,-1.9684,12.8021,-47.1497,10.8006,-2.0434,-13.1358,,,,
04_S9,04/05/2023,16:59:19.800,0.0544,0.0110,1.0415,5.4398,1.6785,-81.3217,10.8006,-2.0434,-13.1358,,,,
04_S9,04/05/2023,16:59:19.900,0.0593,-0.0071,1.0312,1.5564,4.3106,-76.6525,10.8006,-2.0434,-11.3844,,,,
04_S9,04/05/2023,16:59:20.000,0.0513,0.0244,1.0457,0.9155,2.7313,-53.1998,11.3844,-1.4595,-12.5520,Inactive,0,24.97,
04_S9,04/05/2023,16:59:20.100,0.0530,0.0061,1.0376,-0.9537,2.9984,-59.2651,14.0115,-1.4595,-12.8439,,,,
04_S9,04/05/2023,16:59:20.200,0.0293,0.0305,1.0593,0.0916,4.6692,-58.4488,13.7196,-1.7514,-12.5520,,,,
04_S9,04/05/2023,16:59:20.300,0.0356,0.0549,1.0408,-2.5558,2.6779,-44.3802,13.7196,-1.7514,-12.5520,,,,
04_S9,04/05/2023,16:59:20.400,0.0337,0.0342,1.0420,-1.6937,2.0752,-58.5632,14.4494,-2.7731,-12.1141,,,,
04_S9,04/05/2023,16:59:20.500,0.0320,0.0420,1.0469,-0.4425,1.7929,-51.2009,15.7630,-3.7948,-12.5520,,,,
04_S9,04/05/2023,16:59:20.600,0.0210,0.0352,1.0300,1.2665,0.1831,-46.3791,15.4711,-5.8381,-13.4277,,,,
04_S9,04/05/2023,16:59:20.700,0.0327,0.0647,1.0474,1.3123,-1.5793,-36.2625,15.4711,-5.8381,-13.4277,,,,
04_S9,04/05/2023,16:59:20.800,0.0325,0.0510,1.0325,-4.5395,0.8087,-57.2891,15.0332,-6.2760,-12.4061,,,,
04_S9,04/05/2023,16:59:20.900,0.0269,0.0435,1.0215,-2.4567,1.7319,-75.1266,16.4928,-5.6922,-12.6980,,,,
04_S9,04/05/2023,16:59:21.000,0.0215,0.0383,1.0703,-2.8763,1.5793,-65.1321,16.3468,-9.6329,-14.0115,Inactive,0,24.95,
04_S9,04/05/2023,16:59:21.100,0.0203,0.0471,1.0518,-1.0834,3.0594,-14.6408,16.7847,-8.6113,-12.1141,,,,
04_S9,04/05/2023,16:59:21.200,0.0034,0.0356,1.0469,-3.2883,3.2349,9.6893,16.7847,-8.6113,-12.1141,,,,
04_S9,04/05/2023,16:59:21.300,0.0107,0.0244,1.0459,-6.6605,2.9984,6.4468,18.0982,-7.0058,-11.9682,,,,
04_S9,04/05/2023,16:59:21.400,0.0427,-0.0193,1.0183,-1.7624,5.1651,3.2806,16.9306,-8.1734,-13.4277,,,,
04_S9,04/05/2023,16:59:21.500,0.0098,0.0723,1.0510,6.7673,6.5842,24.3607,16.2008,-7.7355,-13.8656,,,,
04_S9,04/05/2023,16:59:21.600,0.0205,0.0430,1.0457,-4.7760,-8.4839,-15.8463,15.6170,-8.3194,-12.6980,,,,
04_S9,04/05/2023,16:59:21.700,0.0481,0.0483,1.0498,-2.2507,-0.3662,-3.0594,15.6170,-8.3194,-12.6980,,,,
04_S9,04/05/2023,16:59:21.800,0.0105,0.0530,1.0405,-5.1270,3.5706,-18.2495,16.6387,-9.6329,-12.5520,,,,
04_S9,04/05/2023,16:59:21.900,0.0144,0.0278,1.0288,-3.6087,14.3967,-46.1655,16.6387,-9.9248,-11.9682,,,,
04_S9,04/05/2023,16:59:22.000,-0.0176,0.0334,1.0237,7.7362,12.3749,-56.0913,16.4928,-8.9032,-14.1575,Inactive,0,24.97,
04_S9,04/05/2023,16:59:22.100,-0.0176,0.0371,1.0537,2.7847,0.4349,-56.4575,16.4928,-9.7789,-12.6980,,,,
04_S9,04/05/2023,16:59:22.200,-0.0278,0.0317,1.0417,-3.4637,-0.8621,-59.6466,16.4928,-9.7789,-12.6980,,,,
04_S9,04/05/2023,16:59:22.300,-0.0283,0.0315,1.0396,-3.4180,6.0654,-61.0733,16.2008,-10.6546,-14.1575,,,,
04_S9,04/05/2023,16:59:22.400,-0.0300,0.0278,1.0383,-0.7553,4.0741,-55.5954,16.4928,-11.5303,-15.0332,,,,
04_S9,04/05/2023,16:59:22.500,-0.0247,0.0488,1.0425,-0.5875,0.6561,-50.5753,16.3468,-11.9682,-14.3035,,,,
04_S9,04/05/2023,16:59:22.600,-0.0352,0.0239,1.0247,0.1907,2.3804,-59.6161,17.2225,-12.2601,-13.7196,,,,
04_S9,04/05/2023,16:59:22.700,-0.0269,0.0303,1.0447,-0.8850,-0.5188,-61.2488,17.2225,-12.2601,-13.7196,,,,
04_S9,04/05/2023,16:59:22.800,-0.0212,0.0032,1.0449,-2.3270,-1.1826,-67.3904,17.2225,-13.4277,-14.0115,,,,
04_S9,04/05/2023,16:59:22.900,-0.0178,-0.0125,1.0413,-4.0207,-0.7477,-71.0602,17.6604,-15.9089,-15.6170,,,,
04_S9,04/05/2023,16:59:23.000,-0.0186,0.0020,1.0376,-3.5172,1.7395,-63.4995,17.2225,-16.0549,-14.8873,Inactive,0,24.95,
04_S9,04/05/2023,16:59:23.100,-0.0190,-0.0168,1.0532,-2.5787,2.5482,-53.5583,15.6170,-18.2442,-13.8656,,,,
04_S9,04/05/2023,16:59:23.200,-0.0232,-0.0181,1.0437,-0.8087,3.2120,-47.8363,15.6170,-18.2442,-13.8656,,,,
04_S9,04/05/2023,16:59:23.300,-0.0283,-0.0139,1.0452,1.5106,2.8915,-27.1225,16.6387,-19.8497,-14.5954,,,,
04_S9,04/05/2023,16:59:23.400,-0.0176,-0.0159,1.0481,2.1057,1.0910,-3.5858,14.3035,-19.5578,-13.4277,,,,
04_S9,04/05/2023,16:59:23.500,-0.0095,0.0510,1.0308,3.3035,-2.3727,14.6866,16.3468,-18.9740,-14.5954,,,,
04_S9,04/05/2023,16:59:23.600,-0.0142,0.0027,1.0686,2.0142,5.7831,1.2894,15.0332,-18.2442,-14.7413,,,,
04_S9,04/05/2023,16:59:23.700,-0.0249,0.0259,1.0374,0.7706,0.8011,-0.9079,15.0332,-18.2442,-14.7413,,,,
04_S9,04/05/2023,16:59:23.800,-0.0139,0.0273,1.0364,-0.7477,1.7242,2.3193,15.6170,-18.8280,-14.1575,,,,
04_S9,04/05/2023,16:59:23.900,-0.0215,0.0151,1.0552,-1.8005,2.8229,4.8141,14.0115,-17.8063,-14.5954,,,,
04_S9,04/05/2023,16:59:24.000,-0.0115,-0.0020,1.0449,-2.7847,0.2670,-8.1406,16.0549,-18.3902,-14.5954,Inactive,0,24.97,
04_S9,04/05/2023,16:59:24.100,0.0081,0.0312,1.0532,-1.7700,-6.1417,-39.1388,14.0115,-19.8497,-14.8873,,,,
04_S9,04/05/2023,16:59:24.200,-0.0137,0.0144,1.0347,-4.1275,7.0343,-62.1796,14.0115,-19.8497,-14.8873,,,,
04_S9,04/05/2023,16:59:24.300,-0.0083,0.0264,1.0435,-5.2338,3.1815,-79.7729,12.6980,-20.2876,-15.3251,,,,
04_S9,04/05/2023,16:59:24.400,-0.0007,-0.0149,1.0425,-2.8839,-0.5264,-81.2759,11.5303,-21.4552,-13.2818,,,,
04_S9,04/05/2023,16:59:24.500,0.0005,0.0017,1.0471,-2.8305,-1.8463,-67.1158,9.6329,-22.7688,-13.4277,,,,
04_S9,04/05/2023,16:59:24.600,0.0098,-0.0068,1.0466,-4.3030,1.5640,-62.1567,9.6329,-22.7688,-13.4277,,,,
04_S9,04/05/2023,16:59:24.700,0.0159,-0.0183,1.0645,-3.4332,2.1820,-68.1152,8.6113,-23.7904,-13.2818,,,,
04_S9,04/05/2023,16:59:24.800,0.0239,-0.0278,1.0432,-3.0899,1.2970,-70.5795,6.7139,-23.0607,-13.4277,,,,
04_S9,04/05/2023,16:59:24.900,0.0347,-0.0327,1.0383,-7.1640,-0.5569,-64.2471,5.1084,-22.9147,-13.8656,,,,
04_S9,04/05/2023,16:59:25.000,0.0266,-0.0349,1.0432,-6.2943,0.6943,-67.2760,2.3353,-22.1849,-13.1358,Inactive,0,24.98,
04_S9,04/05/2023,16:59:25.100,0.0447,-0.0491,1.0544,-8.7051,3.8757,-62.5000,2.3353,-22.1849,-13.1358,,,,
04_S9,04/05/2023,16:59:25.200,0.0564,-0.0579,1.0415,-7.0114,2.3956,-51.8799,1.3136,-19.7037,-12.4061,,,,
04_S9,04/05/2023,16:59:25.300,0.0437,-0.0569,1.0322,-3.3569,5.2643,-52.4826,1.0217,-19.4118,-13.5737,,,,
04_S9,04/05/2023,16:59:25.400,0.0486,-0.0645,1.0498,1.6632,7.2250,-59.1125,-0.8757,-18.0982,-12.8439,,,,
04_S9,04/05/2023,16:59:25.500,0.0476,-0.0615,1.0486,0.6180,5.8212,-30.7388,-1.3136,-17.0766,-12.4061,,,,
04_S9,04/05/2023,16:59:25.600,0.0317,-0.0312,1.0562,2.6169,2.2659,7.3395,-1.3136,-17.0766,-12.4061,,,,
04_S9,04/05/2023,16:59:25.700,0.0496,-0.0237,1.0386,0.1678,2.7771,-0.4883,-1.1676,-16.9306,-11.0925,,,,
04_S9,04/05/2023,16:59:25.800,0.0366,-0.0356,1.0532,-1.1597,2.4490,-2.2278,-1.1676,-16.9306,-12.2601,,,,
04_S9,04/05/2023,16:59:25.900,0.0269,-0.0444,1.0503,-1.7014,3.5629,-1.5335,-1.0217,-17.3685,-11.8222,,,,
04_S9,04/05/2023,16:59:26.000,0.0701,-0.0193,1.0623,0.3967,2.1820,-1.7166,-2.3353,-17.5144,-12.8439,Inactive,0,24.99,
04_S9,04/05/2023,16:59:26.100,0.0293,-0.0286,1.0474,5.9814,1.2894,-21.8201,-2.3353,-17.5144,-12.8439,,,,
04_S9,04/05/2023,16:59:26.200,0.0483,-0.0017,1.0261,-4.3335,-0.5112,-42.2211,-2.7731,-17.0766,-12.9899,,,,
04_S9,04/05/2023,16:59:26.300,0.0503,-0.0237,1.0339,-4.6997,0.7553,-74.8520,-2.7731,-15.6170,-12.4061,,,,
04_S9,04/05/2023,16:59:26.400,0.0605,-0.0166,1.0408,-1.7624,-0.7248,-85.9528,-3.0650,-12.4061,-12.4061,,,,
04_S9,04/05/2023,16:59:26.500,0.0793,-0.0234,1.0283,-3.3112,-6.0654,-87.5626,-2.1893,-12.1141,-12.6980,,,,
04_S9,04/05/2023,16:59:26.600,0.0879,-0.0154,1.0342,-5.4321,-2.3117,-64.9872,-2.1893,-12.1141,-12.6980,,,,
04_S9,04/05/2023,16:59:26.700,0.0938,0.0017,1.0435,-10.5667,3.1509,-70.3964,-1.8974,-10.0708,-11.8222,,,,
04_S9,04/05/2023,16:59:26.800,0.0801,-0.0334,1.0425,-8.9111,14.9384,-105.3467,-0.7298,-6.2760,-11.5303,,,,
04_S9,04/05/2023,16:59:26.900,0.0676,-0.0322,1.0264,-1.5488,7.9269,-100.0671,-0.1460,-4.8165,-11.5303,,,,
04_S9,04/05/2023,16:59:27.000,0.0801,-0.0093,1.0325,-3.9673,-3.0670,-54.0848,1.6055,-4.5246,-10.9465,Inactive,0,24.99,
04_S9,04/05/2023,16:59:27.100,0.0786,-0.0405,1.0449,-4.2114,-2.0065,-26.3443,1.6055,-4.5246,-10.9465,,,,
04_S9,04/05/2023,16:59:27.200,0.0840,-0.0142,1.0364,-4.4098,6.2103,-28.8773,2.3353,-3.2110,-11.0925,,,,
04_S9,04/05/2023,16:59:27.300,0.0762,-0.0310,1.0403,-6.3324,5.1651,-57.4799,3.2110,-2.6272,-11.9682,,,,
04_S9,04/05/2023,16:59:27.400,0.0737,-0.0229,1.0310,-4.3793,10.4980,-79.7195,5.4003,-1.3136,-10.0708,,,,
04_S9,04/05/2023,16:59:27.500,0.0500,-0.0728,1.0579,-2.1057,7.3929,-57.2128,7.1517,-1.3136,-11.8222,,,,
04_S9,04/05/2023,16:59:27.600,0.0623,0.0637,1.0215,4.0741,3.6011,16.9525,7.1517,-1.3136,-11.8222,,,,
04_S9,04/05/2023,16:59:27.700,0.0454,-0.0332,1.0486,-9.6054,-3.8300,-4.5700,6.1301,-1.4595,-11.9682,,,,
04_S9,04/05/2023,16:59:27.800,0.0625,-0.0012,1.0366,-3.1662,2.2125,-0.5112,5.8381,-0.2919,-11.9682,,,,
04_S9,04/05/2023,16:59:27.900,0.0588,-0.0059,1.0674,-0.9460,0.8621,0.1755,6.8598,-2.1893,-10.6546,,,,
04_S9,04/05/2023,16:59:28.000,0.0671,-0.0217,1.0376,-0.2060,1.3809,1.2741,6.4220,-2.0434,-11.0925,Inactive,0,24.96,
04_S9,04/05/2023,16:59:28.100,0.0708,0.0161,1.0271,-2.3651,8.7967,-24.5743,6.4220,-2.0434,-11.0925,,,,
04_S9,04/05/2023,16:59:28.200,0.0608,0.0098,1.0476,6.0883,0.7782,-78.4607,6.5679,-1.6055,-10.6546,,,,
04_S9,04/05/2023,16:59:28.300,0.0686,0.0088,1.0295,1.7776,1.2817,-138.7634,10.0708,-2.4812,-11.5303,,,,
04_S9,04/05/2023,16:59:28.400,0.0479,0.0217,1.0227,1.1215,3.1738,-121.1777,12.2601,-1.7514,-11.9682,,,,
04_S9,04/05/2023,16:59:28.500,0.0552,0.0544,1.0349,1.9455,2.3193,-64.4150,12.2601,-1.7514,-11.9682,,,,
04_S9,04/05/2023,16:59:28.600,0.0312,0.0728,1.0200,3.0136,8.0795,-68.2907,12.5520,-3.7948,-11.9682,,,,
04_S9,04/05/2023,16:59:28.700,0.0374,0.0693,1.0415,0.8545,3.8605,-84.6634,13.1358,-2.9191,-12.2601,,,,
04_S9,04/05/2023,16:59:28.800,0.0327,0.0449,1.0396,-3.7766,-2.9373,-94.0170,15.0332,-6.2760,-12.9899,,,,
04_S9,04/05/2023,16:59:28.900,0.0220,0.0500,1.0286,-0.9842,-1.4114,-63.2935,15.6170,-6.5679,-12.6980,,,,
04_S9,04/05/2023,16:59:29.000,0.0229,0.0745,1.0476,-0.1221,0.3281,-44.5328,15.6170,-6.5679,-12.6980,Inactive,0,24.98,
04_S9,04/05/2023,16:59:29.100,0.0115,0.0596,1.0449,-3.5629,3.1204,-51.6891,17.3685,-6.5679,-12.4061,,,,
04_S9,04/05/2023,16:59:29.200,-0.0024,0.0508,1.0317,-5.0125,2.8992,-44.8532,16.4928,-7.1517,-13.5737,,,,
04_S9,04/05/2023,16:59:29.300,0.0100,0.0667,1.0383,0.9308,-1.7014,-41.2445,17.0766,-8.3194,-13.2818,,,,
04_S9,04/05/2023,16:59:29.400,-0.0144,0.0408,1.0369,-1.2207,-0.2899,-45.4178,17.8063,-9.3410,-11.9682,,,,
04_S9,04/05/2023,16:59:29.500,0.0054,0.0535,1.0334,-6.5689,0.6943,2.9297,17.8063,-9.3410,-11.9682,,,,
04_S9,04/05/2023,16:59:29.600,0.0164,0.0339,1.0442,-3.2425,1.9150,5.6076,18.3902,-9.6329,-11.9682,,,,
04_S9,04/05/2023,16:59:29.700,0.0022,0.0403,1.0386,1.2589,4.1504,5.8212,16.7847,-9.1951,-12.4061,,,,
04_S9,04/05/2023,16:59:29.800,0.0293,0.0532,1.0474,-1.7853,-0.3433,0.0458,17.3685,-9.4870,-12.4061,,,,
04_S9,04/05/2023,16:59:29.900,-0.0066,0.0508,1.0403,-1.9302,2.2736,-1.1978,16.6387,-8.7572,-11.9682,,,,
04_S9,04/05/2023,16:59:30.000,0.0278,0.0520,1.0364,-6.1493,1.0757,-15.3885,16.6387,-8.7572,-11.9682,Inactive,0,24.95,
04_S9,04/05/2023,16:59:30.100,0.0054,0.0361,1.0259,-0.7248,7.4387,-50.0488,17.0766,-10.0708,-12.9899,,,,
04_S9,04/05/2023,16:59:30.200,0.0000,0.0525,1.0481,2.1286,2.9297,-60.8978,17.5144,-10.5087,-13.1358,,,,
04_S9,04/05/2023,16:59:30.300,-0.0068,0.0259,1.0334,-6.2943,6.4621,-73.1659,17.6604,-10.6546,-15.0332,,,,
04_S9,04/05/2023,16:59:30.400,-0.0056,0.0244,1.0264,-0.6714,5.2643,-88.0814,17.3685,-12.1141,-14.1575,,,,
04_S9,04/05/2023,16:59:30.500,-0.0083,0.0457,1.0403,-0.2365,-3.0670,-67.7490,17.3685,-12.1141,-14.1575,,,,
04_S9,04/05/2023,16:59:30.600,-0.0205,0.0376,1.0376,0.8926,0.7629,-54.7028,18.6821,-14.8873,-14.0115,,,,
04_S9,04/05/2023,16:59:30.700,-0.0061,0.0508,1.0513,-1.8387,-2.3499,-54.3137,18.2442,-15.3251,-13.5737,,,,
04_S9,04/05/2023,16:59:30.800,-0.0034,0.0398,1.0442,-3.0899,-2.1286,-71.2509,17.0766,-16.7847,-14.7413,,,,
04_S9,04/05/2023,16:59:30.900,-0.0078,0.0049,1.0325,-3.7460,4.0970,-74.5544,16.7847,-17.6604,-13.8656,,,,
04_S9,04/05/2023,16:59:31.000,-0.0120,0.0195,1.0376,-2.9068,2.5177,-67.7795,16.7847,-17.6604,-13.8656,Inactive,0,24.92,
04_S9,04/05/2023,16:59:31.100,-0.0049,0.0088,1.0403,-2.9297,-0.3510,-87.8143,16.0549,-19.2659,-13.1358,,,,
04_S9,04/05/2023,16:59:31.200,0.0029,-0.0518,1.0371,-2.6016,-0.0458,-84.3506,14.7413,-22.0390,-14.1575,,,,
04_S9,04/05/2023,16:59:31.300,-0.0020,-0.0364,1.0364,-1.7929,-0.0076,-17.0898,13.8656,-22.3309,-13.5737,,,,
04_S9,04/05/2023,16:59:31.400,0.0195,0.0156,1.0491,-2.2278,-5.2185,10.8261,14.3035,-21.6011,-14.3035,,,,
04_S9,04/05/2023,16:59:31.500,0.0229,-0.0173,1.0598,-1.9073,3.6316,5.0278,14.3035,-21.6011,-14.3035,,,,
04_S9,04/05/2023,16:59:31.600,-0.0029,0.0168,1.0288,-2.5406,14.1220,10.2997,14.0115,-21.0173,-14.5954,,,,
04_S9,04/05/2023,16:59:31.700,-0.0183,0.0129,1.0388,1.5106,0.3052,-3.8528,14.7413,-20.5795,-14.4494,,,,
04_S9,04/05/2023,16:59:31.800,-0.0085,0.0129,1.0413,-1.3428,0.5188,0.9003,14.1575,-21.1633,-13.2818,,,,
04_S9,04/05/2023,16:59:31.900,0.0010,-0.0081,1.0471,-0.1068,-4.5853,-21.3470,13.1358,-21.6011,-13.4277,,,,
04_S9,04/05/2023,16:59:32.000,0.0283,0.0193,1.0593,-4.9362,-3.9368,-76.9119,13.1358,-21.6011,-13.4277,Inactive,0,24.97,
04_S9,04/05/2023,16:59:32.100,0.0283,-0.0037,1.0432,-8.5144,5.8365,-112.1979,12.2601,-22.4769,-13.1358,,,,
04_S9,04/05/2023,16:59:32.200,0.0234,-0.0322,1.0415,-9.1171,4.7379,-102.4780,9.4870,-24.0823,-12.9899,,,,
04_S9,04/05/2023,16:59:32.300,0.0234,-0.0432,1.0256,-6.5002,1.8463,-92.0181,7.1517,-24.0823,-12.9899,,,,
04_S9,04/05/2023,16:59:32.400,0.0459,-0.0356,1.0537,-7.6370,-3.2349,-69.0842,7.1517,-24.0823,-12.9899,,,,
04_S9,04/05/2023,16:59:32.500,0.0623,-0.1057,1.0276,-2.9984,-4.8981,-101.4099,4.9624,-24.2283,-12.8439,,,,
04_S9,04/05/2023,16:59:32.600,0.0696,-0.0273,1.0483,-7.3471,1.5564,-47.9126,2.6272,-22.4769,-13.4277,,,,
04_S9,04/05/2023,16:59:32.700,0.0774,-0.0178,1.0437,-4.6005,2.7008,-65.2542,1.8974,-22.0390,-12.6980,,,,
04_S9,04/05/2023,16:59:32.800,0.0574,-0.0496,1.0244,0.2136,12.3215,-95.3522,-2.4812,-18.8280,-11.2384,,,,
04_S9,04/05/2023,16:59:32.900,0.0740,-0.0383,1.0544,0.3204,7.9727,-64.4608,-2.4812,-18.8280,-11.2384,,,,
04_S9,04/05/2023,16:59:33.000,0.0525,-0.0027,1.0342,-3.0365,5.9738,-45.2271,-2.0434,-18.0982,-11.9682,Inactive,0,24.97,
04_S9,04/05/2023,16:59:33.100,0.0518,-0.0259,1.0405,-2.6245,3.8834,-67.4896,-3.5029,-16.3468,-11.9682,,,,
04_S9,04/05/2023,16:59:33.200,0.0542,-0.0208,1.0679,-3.3798,2.8992,-64.4455,-3.5029,-13.7196,-12.8439,,,,
04_S9,04/05/2023,16:59:33.300,0.0554,-0.0493,1.0581,-5.7068,4.7836,-68.7485,-3.9407,-10.9465,-11.8222,,,,
04_S9,04/05/2023,16:59:33.400,0.0586,-0.0371,1.0525,-4.8065,3.7918,-32.1655,-3.9407,-10.9465,-11.8222,,,,
04_S9,04/05/2023,16:59:33.500,0.0427,-0.0029,1.0220,-4.9362,4.3182,-21.6522,-4.9624,-12.5520,-12.2601,,,,
04_S9,04/05/2023,16:59:33.600,0.0554,-0.0537,1.0352,-5.9128,8.4991,-57.0679,-3.2110,-9.9248,-11.3844,,,,
04_S9,04/05/2023,16:59:33.700,0.0383,-0.0679,1.0598,-6.3477,7.9880,-32.2342,-2.9191,-7.5896,-11.0925,,,,
04_S9,04/05/2023,16:59:33.800,0.0640,-0.0083,1.0171,2.1439,8.7509,4.0665,-1.7514,-6.7139,-11.3844,,,,
04_S9,04/05/2023,16:59:33.900,0.0295,-0.0371,1.0627,0.6180,0.6027,-0.6027,-1.7514,-6.7139,-11.3844,,,,
04_S9,04/05/2023,16:59:34.000,-0.0015,-0.0305,1.0186,1.0681,-3.6926,0.3815,-2.7731,-7.1517,-10.3627,Inactive,0,24.96,
04_S9,04/05/2023,16:59:34.100,0.0527,-0.0063,1.0217,-0.0916,-4.1428,-1.4648,-3.2110,-7.8815,-11.9682,,,,
04_S9,04/05/2023,16:59:34.200,0.0303,0.0015,1.0781,0.5569,6.4163,-49.6826,-2.1893,-7.7355,-12.1141,,,,
04_S9,04/05/2023,16:59:34.300,0.0635,-0.0618,1.0378,-0.1831,9.4757,-143.4326,-0.2919,-2.6272,-12.5520,,,,
04_S9,04/05/2023,16:59:34.400,0.0479,-0.0093,1.0251,0.8926,8.3389,-115.3793,-0.2919,-2.6272,-12.5520,,,,
04_S9,04/05/2023,16:59:34.500,0.0303,-0.0005,1.0391,-2.8915,-0.2518,-99.1745,1.3136,-1.6055,-10.6546,,,,
04_S9,04/05/2023,16:59:34.600,0.0522,-0.0278,1.0518,-5.0964,-0.4807,-115.5472,4.2327,-1.0217,-10.3627,,,,
04_S9,04/05/2023,16:59:34.700,0.0427,0.0205,1.0381,-1.1063,3.2501,-71.7468,5.9841,-0.1460,-12.6980,,,,
04_S9,04/05/2023,16:59:34.800,0.0334,0.0190,1.0266,-1.5945,2.7695,-75.6073,8.0274,0.1460,-12.1141,,,,
04_S9,04/05/2023,16:59:34.900,0.0535,0.0037,1.0405,-1.3428,1.9608,-78.9490,8.0274,0.1460,-12.1141,,,,
04_S9,04/05/2023,16:59:35.000,0.0591,0.0063,1.0486,-6.4163,-4.5013,-70.8008,10.8006,0.5838,-10.8006,Inactive,0,24.98,
04_S9,04/05/2023,16:59:35.100,0.0564,-0.0090,1.0693,-4.6768,-1.5564,-62.1872,12.6980,-0.7298,-10.9465,,,,
04_S9,04/05/2023,16:59:35.200,0.0569,0.0229,1.0398,-0.6485,4.7913,-14.1068,12.4061,-1.3136,-12.6980,,,,
04_S9,04/05/2023,16:59:35.300,0.0566,0.0220,1.0635,3.1586,2.7313,6.9809,12.4061,-1.3136,-11.8222,,,,
04_S9,04/05/2023,16:59:35.400,0.0642,-0.0149,1.0410,1.8845,5.0201,-0.7782,12.4061,-1.3136,-11.8222,,,,
04_S9,04/05/2023,16:59:35.500,0.0234,-0.0059,1.0237,2.3422,4.0207,6.5842,12.6980,-1.0217,-10.6546,,,,
04_S9,04/05/2023,16:59:35.600,0.0525,0.0195,1.0430,2.0370,4.7455,10.1089,12.8439,-0.2919,-11.0925,,,,
04_S9,04/05/2023,16:59:35.700,0.0176,0.0718,1.0557,-2.8152,6.9427,-7.8430,11.5303,-1.0217,-10.9465,,,,
04_S9,04/05/2023,16:59:35.800,-0.0049,0.0413,1.0513,1.3657,13.0157,-86.1359,14.3035,-0.2919,-12.8439,,,,
04_S9,04/05/2023,16:59:35.900,0.0154,0.0569,1.0288,5.6610,4.0588,-169.0292,14.3035,-0.2919,-12.8439,,,,
04_S9,04/05/2023,16:59:36.000,0.0002,0.0208,1.0547,-3.1204,-3.1967,-164.6576,17.3685,-3.0650,-12.4061,Inactive,0,24.98,
04_S9,04/05/2023,16:59:36.100,0.0071,0.0266,1.0437,0.7019,-4.5166,-106.9183,18.2442,-5.6922,-11.5303,,,,
04_S9,04/05/2023,16:59:36.200,0.0056,0.0312,1.0479,-2.0447,-0.6332,-75.7370,19.1199,-8.9032,-12.9899,,,,
04_S9,04/05/2023,16:59:36.300,0.0051,0.0369,1.0630,0.8698,3.3646,-63.5681,19.1199,-8.9032,-12.9899,,,,
04_S9,04/05/2023,16:59:36.400,-0.0054,0.0352,1.0632,0.5569,3.9368,-43.1976,19.5578,-9.3410,-12.8439,,,,
04_S9,04/05/2023,16:59:36.500,-0.0073,0.0454,1.0574,-1.6708,3.6621,-40.8783,18.9740,-8.4653,-12.2601,,,,
04_S9,04/05/2023,16:59:36.600,-0.0054,0.0374,1.0435,0.1221,-0.2289,-63.7131,18.8280,-10.3627,-12.1141,,,,
04_S9,04/05/2023,16:59:36.700,-0.0435,-0.0103,1.0537,-1.0452,-2.5940,-40.2374,19.7037,-12.6980,-12.1141,,,,
04_S9,04/05/2023,16:59:36.800,0.0015,0.0144,1.0430,-4.6310,3.0518,-3.1586,19.7037,-12.6980,-12.1141,,,,
04_S9,04/05/2023,16:59:36.900,0.0020,0.0342,1.0215,-1.6403,3.5248,-9.0332,18.9740,-12.2601,-12.8439,,,,
04_S9,04/05/2023,16:59:37.000,0.0071,0.0469,1.0486,-2.7695,0.2060,-10.2234,18.5361,-12.9899,-12.1141,Inactive,0,24.99,
04_S9,04/05/2023,16:59:37.100,-0.0005,0.0356,1.0513,-5.6381,-2.0370,-8.6060,18.6821,-13.1358,-12.8439,,,,
04_S9,04/05/2023,16:59:37.200,-0.0005,0.0183,1.0491,-3.4943,1.1749,-3.8757,18.5361,-11.5303,-13.2818,,,,
04_S9,04/05/2023,16:59:37.300,-0.0181,0.0005,1.0508,-7.0572,3.4714,-12.5122,18.5361,-11.5303,-13.2818,,,,
04_S9,04/05/2023,16:59:37.400,-0.0225,0.0022,1.0366,-4.2572,18.7454,-46.6309,19.8497,-12.8439,-14.0115,,,,
04_S9,04/05/2023,16:59:37.500,-0.0457,0.0146,1.0593,5.3482,11.0092,-82.6111,17.6604,-12.9899,-13.5737,,,,
04_S9,04/05/2023,16:59:37.600,-0.0256,0.0027,1.0520,-0.4883,7.4921,-107.5516,18.3902,-16.0549,-13.7196,,,,
04_S9,04/05/2023,16:59:37.700,-0.0352,-0.0032,1.0229,0.1907,6.4697,-98.8617,17.5144,-16.3468,-12.5520,,,,
04_S9,04/05/2023,16:59:37.800,-0.0542,-0.0400,1.0332,-1.9913,8.2016,-81.4896,17.5144,-16.3468,-12.5520,,,,
04_S9,04/05/2023,16:59:37.900,-0.0547,-0.0195,1.0405,1.1215,4.7226,-86.8683,17.6604,-17.9523,-14.1575,,,,
04_S9,04/05/2023,16:59:38.000,-0.0388,-0.0410,1.0339,1.2054,1.2360,-111.9766,15.3251,-19.7037,-14.1575,Inactive,0,24.98,
04_S9,04/05/2023,16:59:38.100,-0.0364,-0.0454,1.0430,1.2360,-1.6632,-108.4518,12.4061,-22.0390,-12.4061,,,,
04_S9,04/05/2023,16:59:38.200,-0.0239,-0.0542,1.0405,-3.4027,1.2131,-89.8285,10.3627,-22.9147,-12.4061,,,,
04_S9,04/05/2023,16:59:38.300,-0.0144,-0.0762,1.0508,-6.2790,1.1063,-76.8356,10.3627,-22.9147,-12.4061,,,,
04_S9,04/05/2023,16:59:38.400,0.0122,-0.0876,1.0527,-6.3705,-4.0436,-60.3867,8.9032,-23.2066,-12.4061,,,,
04_S9,04/05/2023,16:59:38.500,0.0210,-0.0454,1.0464,-11.9400,-1.3351,-51.2238,7.5896,-23.9364,-12.2601,,,,
04_S9,04/05/2023,16:59:38.600,0.0471,-0.0957,1.0393,-7.8430,2.7771,-80.1163,5.2543,-23.0607,-12.2601,,,,
04_S9,04/05/2023,16:59:38.700,0.0356,-0.1138,1.0527,-1.0834,5.3177,-54.2908,4.6705,-21.3092,-12.5520,,,,
04_S9,04/05/2023,16:59:38.800,0.0386,-0.0862,1.0427,-0.2594,5.3101,-39.4821,4.6705,-21.3092,-12.5520,,,,
04_S9,04/05/2023,16:59:38.900,0.0447,-0.0774,1.0222,0.4578,5.8060,-57.7011,4.8165,-22.0390,-11.5303,,,,
04_S9,04/05/2023,16:59:39.000,0.0415,-0.0701,1.0398,8.0185,9.6664,-89.8209,0.8757,-20.7254,-12.5520,Inactive,0,24.98,
04_S9,04/05/2023,16:59:39.100,0.0466,-0.0852,1.0378,8.5754,8.9493,-83.8699,-1.7514,-16.9306,-11.9682,,,,
04_S9,04/05/2023,16:59:39.200,0.0828,-0.0747,1.0508,-3.0060,4.9210,-27.8320,-1.8974,-16.2008,-10.3627,,,,
04_S9,04/05/2023,16:59:39.300,0.0662,-0.0769,1.0632,1.2970,-0.9308,3.0975,-1.8974,-16.2008,-10.3627,,,,
04_S9,04/05/2023,16:59:39.400,0.0818,-0.0242,0.9421,-1.3199,-4.8523,-11.3754,-1.8974,-15.9089,-12.1141,,,,
04_S9,04/05/2023,16:59:39.500,0.0391,-0.0212,0.9529,-6.3171,3.7994,-8.7585,-2.3353,-18.0982,-12.8439,,,,
04_S9,04/05/2023,16:59:39.600,0.0676,-0.0378,1.0125,-2.3117,0.2594,-1.1520,-2.6272,-16.3468,-12.2601,,,,
04_S9,04/05/2023,16:59:39.700,0.0630,-0.0542,1.0222,-0.0381,0.6866,-1.3733,-1.1676,-15.7630,-11.3844,,,,
04_S9,04/05/2023,16:59:39.800,0.0901,-0.0627,1.0549,-1.7548,1.4191,-2.7618,-1.1676,-15.7630,-11.3844,,,,
04_S9,04/05/2023,16:59:39.900,0.0732,-0.0454,1.0464,-0.4730,0.1373,-6.6071,-2.3353,-17.5144,-11.9682,,,,
04_S9,04/05/2023,16:59:40.000,0.0740,-0.0374,1.0398,-0.6790,0.7401,-5.5542,-1.7514,-16.6387,-11.9682,Inactive,0,24.98,
04_S9,04/05/2023,16:59:40.100,0.0774,-0.0383,1.0393,-1.7471,3.2349,-4.0436,-2.7731,-16.2008,-12.6980,,,,
04_S9,04/05/2023,16:59:40.200,0.0562,-0.0503,1.0269,-2.2125,6.8665,-4.2419,-2.7731,-16.2008,-12.6980,,,,
04_S9,04/05/2023,16:59:40.300,0.0430,-0.0630,1.0254,-3.0441,6.3400,-3.1204,-1.6055,-15.6170,-12.1141,,,,
04_S9,04/05/2023,16:59:40.400,0.0303,-0.0652,1.0359,-3.8605,4.9057,0.2899,-1.0217,-16.2008,-11.5303,,,,
04_S9,04/05/2023,16:59:40.500,0.0515,-0.0850,1.0552,-2.5024,3.4256,3.1052,-1.7514,-16.0549,-11.0925,,,,
04_S9,04/05/2023,16:59:40.600,0.0598,-0.0818,1.0908,0.7935,1.9226,-4.9057,-1.8974,-15.6170,-12.4061,,,,
04_S9,04/05/2023,16:59:40.700,0.0608,-0.0730,1.0100,6.2408,0.7324,-10.2921,-1.8974,-15.6170,-12.4061,,,,
04_S9,04/05/2023,16:59:40.800,0.0381,-0.0073,1.0190,4.6997,2.6550,-5.0964,-2.6272,-14.5954,-12.8439,,,,
04_S9,04/05/2023,16:59:40.900,0.0125,-0.0620,1.0503,-0.2060,1.8692,-2.7771,-1.7514,-16.0549,-12.5520,,,,
04_S9,04/05/2023,16:59:41.000,0.0625,-0.0381,1.0491,-3.7384,2.8076,1.4038,-1.6055,-15.9089,-11.8222,Inactive,0,25,
04_S9,04/05/2023,16:59:41.100,0.0544,-0.0398,1.0593,-5.0888,3.5324,1.8234,-2.4812,-15.3251,-12.4061,,,,
04_S9,04/05/2023,16:59:41.200,0.0391,-0.0437,1.0386,-2.8763,4.0970,0.5722,-2.4812,-15.3251,-12.4061,,,,
04_S9,04/05/2023,16:59:41.300,0.0449,-0.0535,1.0354,-2.9297,3.3493,1.3809,-1.6055,-14.7413,-13.8656,,,,
04_S9,04/05/2023,16:59:41.400,0.0376,-0.0669,1.0320,-2.3651,2.0523,1.1673,-0.1460,-15.6170,-10.6546,,,,
04_S9,04/05/2023,16:59:41.500,0.0701,-0.0613,1.0410,-1.8158,0.0916,0.1144,-1.6055,-18.8280,-9.4870,,,,
04_S9,04/05/2023,16:59:41.600,0.0540,-0.0547,1.0146,0.2136,2.7390,-2.4796,-2.1893,-14.1575,-2.1893,,,,
04_S9,04/05/2023,16:59:41.700,0.0400,-0.0522,1.0378,-0.4196,3.8071,-3.0289,-2.1893,-14.1575,-2.1893,,,,
04_S9,04/05/2023,16:59:41.800,0.0320,-0.0488,1.0579,-0.3204,3.0823,-3.3798,-1.3136,14.1575,-10.0708,,,,
04_S9,04/05/2023,16:59:41.900,0.0505,-0.0435,1.0610,0.6409,1.5411,-2.8915,-0.2919,107.4218,-118.5143,,,,
04_S9,04/05/2023,16:59:42.000,0.0535,-0.0393,1.0562,1.6327,1.4496,-2.8610,-147.2672,555.6454,-657.8129,Inactive,0,25.01,
04_S9,04/05/2023,16:59:42.100,0.0474,-0.0322,1.0312,1.1368,1.0605,-0.9918,-807.5613,1463.4767,-2590.8224,,,,
04_S9,04/05/2023,16:59:42.200,0.0439,-0.0408,1.0261,-0.3967,1.4954,0.3738,-807.5613,1463.4767,-2590.8224,,,,
04_S9,04/05/2023,16:59:42.300,0.0491,-0.0374,1.0352,-0.4654,1.0300,0.3891,-550.6829,1850.5457,-2931.4781,,,,
04_S9,04/05/2023,16:59:42.400,0.0469,-0.0320,1.0271,-0.6485,1.5259,0.0992,-654.7478,1713.4953,-3068.5285,,,,TIMEMARK!
04_S9,04/05/2023,16:59:42.500,0.0549,-0.0349,1.0493,-1.0605,1.7166,0.9918,-321.6817,2047.1452,-2734.8786,,,,
04_S9,04/05/2023,16:59:42.600,0.0574,-0.0273,1.0376,-0.6561,1.2054,0.7172,-30.7962,1684.4505,-3097.5733,,,,
04_S9,04/05/2023,16:59:42.700,0.0625,-0.0212,1.0417,-0.6104,1.2207,1.4420,-30.7962,1684.4505,-3097.5733,,,,
04_S9,04/05/2023,16:59:42.800,0.0684,-0.0291,1.0583,-0.4578,1.2817,1.4267,-110.6328,1486.0996,-3295.9242,,,,
04_S9,04/05/2023,16:59:42.900,0.0601,-0.0212,1.0420,-0.4425,1.9302,0.6180,-52.9812,1436.9132,-3345.1106,,,,
04_S9,04/05/2023,16:59:43.000,0.0593,-0.0298,1.0344,-1.6937,1.9989,1.3733,-116.3250,2015.1814,-2766.8424,Inactive,0,24.99,
04_S9,04/05/2023,16:59:43.100,0.0591,-0.0354,1.0405,-1.4191,2.1973,1.4420,-252.3538,2162.0107,-2620.0131,,,,
04_S9,04/05/2023,16:59:43.200,0.0449,-0.0349,1.0281,-1.1215,2.2354,1.2589,-252.3538,2162.0107,-2620.0131,,,,
04_S9,04/05/2023,16:59:43.300,0.0601,-0.0408,1.0300,-1.3428,1.8463,2.0523,-268.5546,1998.9805,-2783.0432,,,,
04_S9,04/05/2023,16:59:43.400,0.0552,-0.0330,1.0425,-1.6708,2.1667,0.9995,-610.6699,1482.5967,-3299.4271,,,,
04_S9,04/05/2023,16:59:43.500,0.0591,-0.0325,1.0378,-0.6561,1.6708,0.8545,-674.8894,1492.5215,-3289.5022,,,,
04_S9,04/05/2023,16:59:43.600,0.0510,-0.0400,1.0364,-1.2131,1.7776,0.8621,-738.5252,1690.1427,-3091.8811,,,,TIMEMARK!
04_S9,04/05/2023,16:59:43.700,0.0557,-0.0461,1.0449,-1.0300,1.4496,1.8311,-738.5252,1690.1427,-3091.8811,,,,
04_S9,04/05/2023,16:59:43.800,0.0610,-0.0376,1.0220,-2.4414,1.2054,1.2054,-189.5937,2347.3717,-2434.6520,,,,
04_S9,04/05/2023,16:59:43.900,0.0703,-0.0457,1.0349,-2.0142,1.1978,1.2054,-28.7529,274.5387,-290.3017,,,,
04_S9,04/05/2023,16:59:44.000,0.0586,-0.0417,1.0537,-1.1597,1.0834,0.4044,11.0925,26.5636,-43.2023,Inactive,0,24.99,
04_S9,04/05/2023,16:59:44.100,0.0671,-0.0454,1.0525,-0.6561,1.2207,0.9766,11.0925,26.5636,-43.2023,,,,
04_S9,04/05/2023,16:59:44.200,0.0662,-0.0388,1.0364,-1.4267,1.9989,0.9384,11.2384,5.4003,-20.2876,,,,
04_S9,04/05/2023,16:59:44.300,0.0618,-0.0349,1.0317,-2.1744,2.8458,0.8926,11.5303,2.7731,-16.4928,,,,
04_S9,04/05/2023,16:59:44.400,0.0708,-0.0400,1.0405,-2.5940,2.5177,1.7776,11.9682,1.1676,-15.7630,,,,
04_S9,04/05/2023,16:59:44.500,0.0637,-0.0466,1.0369,-2.1744,2.6016,1.3504,11.0925,2.0434,-14.3035,,,,
04_S9,04/05/2023,16:59:44.600,0.0588,-0.0527,1.0444,-2.2278,1.9150,1.4420,11.0925,2.0434,-14.3035,,,,
04_S9,04/05/2023,16:59:44.700,0.0620,-0.0522,1.0400,-0.8926,1.4114,1.1902,11.2384,1.0217,-15.3251,,,,
04_S9,04/05/2023,16:59:44.800,0.0662,-0.0486,1.0503,-1.7624,-0.0916,1.3046,11.9682,2.0434,-16.6387,,,,
04_S9,04/05/2023,16:59:44.900,0.0664,-0.0535,1.0466,-1.6937,0.9842,1.2360,11.0925,2.6272,-14.3035,,,,
04_S9,04/05/2023,16:59:45.000,0.0664,-0.0518,1.0330,-0.3128,1.5945,0.9537,11.6763,1.4595,-17.2225,Inactive,0,24.99,
04_S9,04/05/2023,16:59:45.100,0.0703,-0.0496,1.0386,-1.6327,1.8845,1.6632,11.6763,1.4595,-17.2225,,,,
04_S9,04/05/2023,16:59:45.200,0.0737,-0.0544,1.0413,-1.5869,2.3880,1.1978,11.5303,1.0217,-15.0332,,,,
04_S9,04/05/2023,16:59:45.300,0.0806,-0.0457,1.0361,-1.3962,2.1667,1.2894,12.6980,0.7298,-15.3251,,,,
04_S9,04/05/2023,16:59:45.400,0.0906,-0.0276,1.0576,-1.8539,1.5869,1.6022,11.6763,0.8757,-15.4711,,,,
04_S9,04/05/2023,16:59:45.500,0.0886,-0.0381,1.0459,-2.1286,1.8997,1.3351,12.2601,0.8757,-16.3468,,,,
04_S9,04/05/2023,16:59:45.600,0.0869,-0.0391,1.0286,-0.7782,1.7395,0.8011,12.2601,0.8757,-16.3468,,,,
04_S9,04/05/2023,16:59:45.700,0.0874,-0.0391,1.0374,-0.8240,1.7548,0.9384,12.5520,0.5838,-14.8873,,,,
04_S9,04/05/2023,16:59:45.800,0.0840,-0.0391,1.0461,-0.6790,2.0370,0.6485,12.4061,0.7298,-16.4928,,,,
04_S9,04/05/2023,16:59:45.900,0.0869,-0.0425,1.0515,-1.2512,1.8616,1.2054,11.3844,0.8757,-15.7630,,,,
04_S9,04/05/2023,16:59:46.000,0.0757,-0.0481,1.0461,-0.8698,2.1362,0.3204,11.8222,1.6055,-15.0332,Inactive,0,24.97,
04_S9,04/05/2023,16:59:46.100,0.0808,-0.0498,1.0349,-0.8011,2.1133,0.7935,11.8222,1.6055,-15.0332,,,,
04_S9,04/05/2023,16:59:46.200,0.0703,-0.0530,1.0361,-1.3275,2.3346,0.5035,11.8222,1.0217,-15.6170,,,,
04_S9,04/05/2023,16:59:46.300,0.0815,-0.0513,1.0347,-0.8469,1.7700,1.0376,11.2384,0.4379,-15.9089,,,,
04_S9,04/05/2023,16:59:46.400,0.0735,-0.0547,1.0442,-1.0605,2.0065,0.4807,11.9682,0.0000,-15.7630,,,,
04_S9,04/05/2023,16:59:46.500,0.0776,-0.0493,1.0325,-0.7324,1.8768,0.9079,10.5087,-0.2919,-14.8873,,,,
04_S9,04/05/2023,16:59:46.600,0.0798,-0.0515,1.0430,-0.9995,2.2049,0.8926,10.5087,-0.2919,-14.8873,,,,
04_S9,04/05/2023,16:59:46.700,0.0781,-0.0439,1.0417,-1.6098,3.3188,0.6866,11.5303,1.0217,-16.4928,,,,
04_S9,04/05/2023,16:59:46.800,0.0757,-0.0535,1.0493,-1.2741,2.7390,-0.0229,12.2601,2.6272,-17.2225,,,,
04_S9,04/05/2023,16:59:46.900,0.0554,-0.0618,1.0425,-0.8774,2.4109,-0.7324,13.1358,2.0434,-23.6445,,,,
04_S9,04/05/2023,16:59:47.000,0.0730,-0.0693,1.0474,-0.1221,1.1902,-0.1450,20.5795,5.9841,-66.7008,Inactive,0,25.01,
04_S9,04/05/2023,16:59:47.100,0.0718,-0.0535,1.0203,0.6790,0.2747,-1.3428,20.5795,5.9841,-66.7008,,,,
04_S9,04/05/2023,16:59:47.200,0.0659,-0.0503,1.0244,0.1678,0.3128,-0.7553,1.7514,-9.3410,-436.9851,,,,
04_S9,04/05/2023,16:59:47.300,0.0754,-0.0459,1.0264,0.1297,1.0300,0.3586,163.6140,-681.7493,-2090.4934,,,,
04_S9,04/05/2023,16:59:47.400,0.0676,-0.0449,1.0315,-1.2741,1.9608,0.1907,0.0000,0.0000,-4782.0238,,,,
04_S9,04/05/2023,16:59:47.500,0.0920,-0.0410,1.0334,-1.4954,1.9989,1.3809,0.0000,0.0000,-4782.0238,,,,TIMEMARK!
04_S9,04/05/2023,16:59:47.600,0.0757,-0.0439,1.0454,-1.9379,2.4948,0.5722,0.0000,0.0000,-4782.0238,,,,
04_S9,04/05/2023,16:59:47.700,0.0869,-0.0439,1.0383,-1.5259,2.1362,1.1139,0.0000,0.0000,-4782.0238,,,,
04_S9,04/05/2023,16:59:47.800,0.0835,-0.0371,1.0403,-0.9613,2.0218,0.7172,0.0000,0.0000,-4782.0238,,,,
04_S9,04/05/2023,16:59:47.900,0.0869,-0.0400,1.0410,-1.3199,1.7471,0.9079,109.0273,109.0273,-4672.9964,,,,
04_S9,04/05/2023,16:59:48.000,0.0818,-0.0420,1.0383,-1.2817,1.9455,0.9155,633.4386,633.4386,-4148.5851,Inactive,0,24.98,
04_S9,04/05/2023,16:59:48.100,0.0752,-0.0464,1.0376,-1.4191,1.9989,0.9308,633.4386,633.4386,-4148.5851,,,,
04_S9,04/05/2023,16:59:48.200,0.0811,-0.0483,1.0317,-0.9460,1.9684,1.0681,689.9227,769.6133,-4012.4104,,,,
04_S9,04/05/2023,16:59:48.300,0.0825,-0.0425,1.0325,-1.2283,1.9302,0.7858,669.7811,669.7811,-4112.2427,,,,
04_S9,04/05/2023,16:59:48.400,0.0872,-0.0439,1.0261,-1.5717,2.0676,1.4496,635.0441,760.2723,-4021.7514,,,,
04_S9,04/05/2023,16:59:48.500,0.0820,-0.0405,1.0352,-1.1368,1.8463,0.9308,635.0441,760.2723,-4021.7514,,,,
04_S9,04/05/2023,16:59:48.600,0.0906,-0.0422,1.0090,-0.8545,1.6556,1.0071,673.8678,802.8908,-3979.1330,,,,
04_S9,04/05/2023,16:59:48.700,0.0769,-0.0542,1.0461,-2.2659,1.5869,0.5493,340.6557,932.9354,-3849.0883,,,,
04_S9,04/05/2023,16:59:48.800,0.1150,-0.0376,1.0420,-0.0687,0.2975,1.9302,11.8222,8.3194,-51.8135,,,,
04_S9,04/05/2023,16:59:48.900,0.0767,-0.0356,1.0317,-0.7248,1.0452,-0.2060,11.5303,-1.3136,-17.3685,,,,
04_S9,04/05/2023,16:59:49.000,0.0920,-0.0510,1.0396,-2.7161,1.8311,1.5869,11.5303,-1.3136,-17.3685,Inactive,0,24.98,
04_S9,04/05/2023,16:59:49.100,0.0952,-0.0596,1.0286,-2.1057,2.6169,1.2131,10.8006,-2.6272,-15.4711,,,,
04_S9,04/05/2023,16:59:49.200,0.0837,-0.0520,1.0288,-2.3575,2.6779,0.7935,10.5087,-2.9191,-15.7630,,,,
04_S9,04/05/2023,16:59:49.300,0.0872,-0.0483,1.0352,-3.5553,3.4180,1.9073,8.9032,-2.7731,-14.7413,,,,
04_S9,04/05/2023,16:59:49.400,0.0845,-0.0605,1.0474,-3.7537,3.9215,1.5106,9.3410,-1.4595,-15.4711,,,,
04_S9,04/05/2023,16:59:49.500,0.0786,-0.0679,1.0437,-2.5253,3.3188,1.2970,9.3410,-1.4595,-15.4711,,,,
04_S9,04/05/2023,16:59:49.600,0.0752,-0.0715,1.0356,-2.2507,2.6245,1.3046,9.7789,-2.7731,-15.6170,,,,
04_S9,04/05/2023,16:59:49.700,0.0793,-0.0693,1.0359,-1.8921,2.3346,1.1368,9.4870,-2.7731,-15.6170,,,,
04_S9,04/05/2023,16:59:49.800,0.0896,-0.0627,1.0337,-1.4420,2.0142,1.2970,11.3844,-2.3353,-15.1792,,,,
04_S9,04/05/2023,16:59:49.900,0.0854,-0.0554,1.0303,-1.6937,2.2736,1.0910,9.7789,-2.4812,-15.0332,,,,
04_S9,04/05/2023,16:59:50.000,0.0000,0.0000,0.0000,0.0000,0.0000,0.0000,0.0000,0.0000,0.0000,Inactive,,21,Power off command received.
