TagID,Date,Time,accX,accY,accZ,gyroX,gyroY,gyroZ,compX,compY,compZ,Activity,Depth,Temp. (?C),Metadata
02_S5,04/05/2023,16:59:14.000,0.0498,0.9766,0.0632,0.0381,0.6638,-1.6403,246.0778,-51.0838,-20.7254,Active,0,-397.7,
02_S5,04/05/2023,16:59:14.100,0.0505,1.0178,0.0632,-0.2823,1.8158,-2.8610,245.0561,-50.3540,-19.4118,,,,
02_S5,04/05/2023,16:59:14.200,0.0500,1.0188,0.0635,-0.3128,1.8845,-2.9068,245.3480,-50.3540,-20.8714,,,,
02_S5,04/05/2023,16:59:14.300,0.0500,1.0183,0.0640,-0.3204,1.8768,-2.8992,244.7642,-50.3540,-19.9956,,,,
02_S5,04/05/2023,16:59:14.400,0.0505,1.0188,0.0627,-0.3204,1.8768,-2.8992,244.7642,-50.3540,-19.9956,,,,
02_S5,04/05/2023,16:59:14.500,0.0513,1.0193,0.0615,-0.3204,1.8692,-2.9068,244.7642,-50.3540,-19.9956,,,,
02_S5,04/05/2023,16:59:14.600,0.0500,1.0190,0.0635,-0.3128,1.8768,-2.8915,244.4723,-51.5216,-19.4118,,,,
02_S5,04/05/2023,16:59:14.700,0.0488,1.0195,0.0623,-0.3281,1.8845,-2.9068,244.4723,-50.6459,-21.1633,,,,
02_S5,04/05/2023,16:59:14.800,0.0498,1.0198,0.0627,-0.3357,1.8692,-2.9068,244.7642,-51.2297,-19.4118,,,,
02_S5,04/05/2023,16:59:14.900,0.0500,1.0198,0.0652,-0.2975,1.8692,-2.8992,245.2020,-50.4999,-18.9740,,,,
02_S5,04/05/2023,16:59:15.000,0.0500,1.0195,0.0635,-0.3204,1.9150,-2.9068,245.7859,-50.4999,-20.1416,Inactive,0,24.38,
02_S5,04/05/2023,16:59:15.100,0.0500,1.0190,0.0637,-0.3357,1.9150,-2.8992,245.7859,-50.4999,-20.1416,,,,
02_S5,04/05/2023,16:59:15.200,0.0503,1.0190,0.0640,-0.3128,1.8997,-2.8915,244.6182,-49.9161,-20.7254,,,,
02_S5,04/05/2023,16:59:15.300,0.0498,1.0195,0.0640,-0.3357,1.8845,-2.9068,244.6182,-51.0838,-19.5578,,,,
02_S5,04/05/2023,16:59:15.400,0.0498,1.0193,0.0647,-0.3052,1.8539,-2.9068,245.4940,-51.0838,-20.4335,,,,
02_S5,04/05/2023,16:59:15.500,0.0500,1.0190,0.0637,-0.3204,1.8845,-2.8915,245.2020,-51.3757,-20.1416,,,,
02_S5,04/05/2023,16:59:15.600,0.0500,1.0193,0.0630,-0.3052,1.9226,-2.9144,245.2020,-51.3757,-20.1416,,,,
02_S5,04/05/2023,16:59:15.700,0.0493,1.0188,0.0623,-0.3433,1.8997,-2.9068,246.0778,-50.7919,-20.7254,,,,
02_S5,04/05/2023,16:59:15.800,0.0500,1.0190,0.0632,-0.3204,1.8921,-2.8839,244.3263,-50.4999,-19.5578,,,,
02_S5,04/05/2023,16:59:15.900,0.0503,1.0193,0.0635,-0.3433,1.9073,-2.9068,244.3263,-50.4999,-20.1416,,,,
02_S5,04/05/2023,16:59:16.000,0.0500,1.0193,0.0637,-0.3204,1.8921,-2.8992,245.4940,-52.5433,-20.7254,Inactive,0,24.38,
02_S5,04/05/2023,16:59:16.100,0.0496,1.0190,0.0637,-0.3128,1.8692,-2.9068,245.4940,-52.5433,-20.7254,,,,
02_S5,04/05/2023,16:59:16.200,0.0491,1.0188,0.0642,-0.2899,1.8845,-2.8992,245.3480,-51.2297,-21.1633,,,,
02_S5,04/05/2023,16:59:16.300,0.0496,1.0193,0.0657,-0.3204,1.8845,-2.9144,244.3263,-50.4999,-19.8497,,,,
02_S5,04/05/2023,16:59:16.400,0.0498,1.0193,0.0649,-0.3128,1.8692,-2.8763,245.4940,-50.4999,-19.8497,,,,
02_S5,04/05/2023,16:59:16.500,0.0503,1.0195,0.0645,-0.2975,1.8768,-2.8839,244.6182,-49.9161,-18.9740,,,,
02_S5,04/05/2023,16:59:16.600,0.0500,1.0190,0.0635,-0.3128,1.8768,-2.8915,244.6182,-49.9161,-18.9740,,,,
02_S5,04/05/2023,16:59:16.700,0.0498,1.0188,0.0642,-0.3204,1.8845,-2.8839,245.7859,-51.6676,-19.8497,,,,
02_S5,04/05/2023,16:59:16.800,0.0498,1.0195,0.0640,-0.3128,1.9150,-2.8992,245.3480,-50.9378,-20.2876,,,,
02_S5,04/05/2023,16:59:16.900,0.0503,1.0178,0.0647,-0.3433,1.8845,-2.8992,244.6182,-51.6676,-18.3902,,,,
02_S5,04/05/2023,16:59:17.000,0.0503,1.0190,0.0647,-0.3128,1.8768,-2.8915,245.2020,-50.7919,-19.8497,Inactive,0,24.4,
02_S5,04/05/2023,16:59:17.100,0.0491,1.0193,0.0632,-0.2899,1.8845,-2.8992,245.7859,-51.0838,-20.7254,,,,
02_S5,04/05/2023,16:59:17.200,0.0498,1.0198,0.0632,-0.3128,1.8387,-2.9221,245.7859,-51.0838,-20.7254,,,,
02_S5,04/05/2023,16:59:17.300,0.0498,1.0188,0.0640,-0.2975,1.8387,-2.9068,245.9318,-50.9378,-19.7037,,,,
02_S5,04/05/2023,16:59:17.400,0.0500,1.0195,0.0649,-0.3204,1.8692,-2.9068,244.9101,-49.9161,-20.4335,,,,
02_S5,04/05/2023,16:59:17.500,0.0500,1.0190,0.0632,-0.3052,1.8768,-2.8992,245.3480,-50.3540,-20.2876,,,,
02_S5,04/05/2023,16:59:17.600,0.0505,1.0190,0.0635,-0.3357,1.8616,-2.8915,245.4940,-51.3757,-20.1416,,,,
02_S5,04/05/2023,16:59:17.700,0.0500,1.0195,0.0625,-0.3204,1.8616,-2.9068,245.4940,-51.3757,-20.1416,,,,
02_S5,04/05/2023,16:59:17.800,0.0496,1.0186,0.0640,-0.3052,1.8768,-2.8915,246.2237,-51.8135,-20.5795,,,,
02_S5,04/05/2023,16:59:17.900,0.0498,1.0188,0.0642,-0.3052,1.8616,-2.8992,245.3480,-50.9378,-19.9956,,,,
02_S5,04/05/2023,16:59:18.000,0.0498,1.0193,0.0642,-0.2899,1.8616,-2.9144,245.6399,-50.6459,-21.1633,Inactive,0,24.4,
02_S5,04/05/2023,16:59:18.100,0.0503,1.0198,0.0647,-0.2975,1.8768,-2.9144,245.6399,-50.6459,-19.7037,,,,
02_S5,04/05/2023,16:59:18.200,0.0503,1.0190,0.0620,-0.2823,1.8616,-2.8915,245.6399,-50.6459,-19.7037,,,,
02_S5,04/05/2023,16:59:18.300,0.0491,1.0198,0.0645,-0.2747,1.8616,-2.9144,244.3263,-51.9595,-20.1416,,,,
02_S5,04/05/2023,16:59:18.400,0.0500,1.0190,0.0630,-0.3357,1.8539,-2.8992,245.7859,-50.7919,-19.8497,,,,
02_S5,04/05/2023,16:59:18.500,0.0493,1.0188,0.0637,-0.3281,1.8463,-2.8992,245.2020,-50.2080,-19.2659,,,,
02_S5,04/05/2023,16:59:18.600,0.0503,1.0195,0.0635,-0.3281,1.8311,-2.9068,245.3480,-50.9378,-19.7037,,,,
02_S5,04/05/2023,16:59:18.700,0.0496,1.0195,0.0613,-0.2975,1.8768,-2.8992,245.3480,-50.9378,-19.7037,,,,
02_S5,04/05/2023,16:59:18.800,0.0496,1.0198,0.0640,-0.3052,1.8692,-2.8687,245.0561,-51.8135,-19.1199,,,,
02_S5,04/05/2023,16:59:18.900,0.0496,1.0193,0.0647,-0.3281,1.8616,-2.9144,246.5156,-50.3540,-19.7037,,,,
02_S5,04/05/2023,16:59:19.000,0.0503,1.0186,0.0630,-0.3052,1.8616,-2.8915,245.4940,-51.0838,-20.7254,Inactive,0,24.38,
02_S5,04/05/2023,16:59:19.100,0.0500,1.0188,0.0654,-0.3357,1.8768,-2.8763,245.3480,-52.3973,-21.1633,,,,
02_S5,04/05/2023,16:59:19.200,0.0505,1.0193,0.0647,-0.3204,1.8463,-2.9221,245.4940,-50.4999,-19.2659,,,,
02_S5,04/05/2023,16:59:19.300,0.0503,1.0193,0.0645,-0.2975,1.8692,-2.8915,245.4940,-50.4999,-19.2659,,,,
02_S5,04/05/2023,16:59:19.400,0.0496,1.0193,0.0649,-0.3128,1.8463,-2.8992,246.5156,-51.5216,-20.2876,,,,
02_S5,04/05/2023,16:59:19.500,0.0508,1.0193,0.0654,-0.3204,1.8921,-2.8915,246.6616,-50.4999,-20.1416,,,,
02_S5,04/05/2023,16:59:19.600,0.0503,1.0198,0.0642,-0.3052,1.8845,-2.9144,246.2237,-50.9378,-19.4118,,,,
02_S5,04/05/2023,16:59:19.700,0.0498,1.0193,0.0640,-0.3052,1.8845,-2.8992,245.0561,-51.5216,-20.8714,,,,
02_S5,04/05/2023,16:59:19.800,0.0503,1.0190,0.0649,-0.3128,1.8768,-2.9297,245.0561,-51.5216,-20.8714,,,,
02_S5,04/05/2023,16:59:19.900,0.0498,1.0188,0.0647,-0.3052,1.8921,-2.8839,245.7859,-50.7919,-21.0173,,,,
02_S5,04/05/2023,16:59:20.000,0.0500,1.0200,0.0630,-0.3281,1.8692,-2.8839,245.9318,-52.1054,-20.8714,Inactive,0,24.36,
02_S5,04/05/2023,16:59:20.100,0.0500,1.0195,0.0657,-0.2823,1.8692,-2.9144,245.3480,-51.2297,-19.9956,,,,
02_S5,04/05/2023,16:59:20.200,0.0493,1.0193,0.0642,-0.3128,1.8616,-2.9144,246.2237,-51.2297,-20.2876,,,,
02_S5,04/05/2023,16:59:20.300,0.0503,1.0200,0.0637,-0.3204,1.8463,-2.9221,246.2237,-51.2297,-20.2876,,,,
02_S5,04/05/2023,16:59:20.400,0.0498,1.0195,0.0627,-0.3128,1.8387,-2.9297,246.2237,-51.5216,-19.7037,,,,
02_S5,04/05/2023,16:59:20.500,0.0498,1.0198,0.0645,-0.3052,1.8616,-2.8915,245.9318,-50.0621,-20.2876,,,,
02_S5,04/05/2023,16:59:20.600,0.0503,1.0193,0.0642,-0.3052,1.8921,-2.9144,245.3480,-50.6459,-19.4118,,,,
02_S5,04/05/2023,16:59:20.700,0.0503,1.0193,0.0647,-0.3052,1.8768,-2.9373,246.0778,-50.4999,-20.7254,,,,
02_S5,04/05/2023,16:59:20.800,0.0500,1.0200,0.0635,-0.3128,1.8463,-2.8992,246.0778,-50.4999,-20.7254,,,,
02_S5,04/05/2023,16:59:20.900,0.0508,1.0193,0.0623,-0.3052,1.8616,-2.9068,245.6399,-50.9378,-19.4118,,,,
02_S5,04/05/2023,16:59:21.000,0.0496,1.0195,0.0632,-0.2899,1.8845,-2.8915,245.7859,-50.4999,-19.8497,Inactive,0,24.34,
02_S5,04/05/2023,16:59:21.100,0.0500,1.0190,0.0635,-0.3128,1.8768,-2.8992,246.0778,-49.9161,-20.4335,,,,
02_S5,04/05/2023,16:59:21.200,0.0505,1.0183,0.0645,-0.3128,1.8768,-2.8763,245.2020,-50.4999,-21.0173,,,,
02_S5,04/05/2023,16:59:21.300,0.0496,1.0186,0.0649,-0.3052,1.8921,-2.8915,245.9318,-50.3540,-20.8714,,,,
02_S5,04/05/2023,16:59:21.400,0.0515,1.0193,0.0640,-0.2975,1.8692,-2.9221,245.9318,-50.3540,-20.8714,,,,
02_S5,04/05/2023,16:59:21.500,0.0496,1.0193,0.0647,-0.2975,1.8845,-2.9068,245.4940,-51.3757,-19.8497,,,,
02_S5,04/05/2023,16:59:21.600,0.0503,1.0198,0.0649,-0.3128,1.8463,-2.9068,245.3480,-50.9378,-20.5795,,,,
02_S5,04/05/2023,16:59:21.700,0.0498,1.0193,0.0657,-0.3204,1.8845,-2.9144,245.4940,-51.0838,-19.8497,,,,
02_S5,04/05/2023,16:59:21.800,0.0503,1.0203,0.0645,-0.3128,1.8845,-2.9068,245.6399,-50.9378,-19.9956,,,,
02_S5,04/05/2023,16:59:21.900,0.0503,1.0188,0.0632,-0.3281,1.8616,-2.9068,245.6399,-50.9378,-19.9956,,,,
02_S5,04/05/2023,16:59:22.000,0.0505,1.0190,0.0642,-0.3357,1.8768,-2.9144,244.9101,-50.7919,-19.5578,Inactive,0,24.37,
02_S5,04/05/2023,16:59:22.100,0.0498,1.0190,0.0630,-0.3052,1.8539,-2.8915,246.2237,-51.5216,-20.2876,,,,
02_S5,04/05/2023,16:59:22.200,0.0503,1.0193,0.0649,-0.3281,1.8768,-2.9144,246.3697,-50.2080,-19.5578,,,,
02_S5,04/05/2023,16:59:22.300,0.0498,1.0198,0.0662,-0.3052,1.8845,-2.9144,246.2237,-50.9378,-20.2876,,,,
02_S5,04/05/2023,16:59:22.400,0.0500,1.0198,0.0642,-0.3052,1.8616,-2.8839,246.2237,-50.9378,-20.2876,,,,
02_S5,04/05/2023,16:59:22.500,0.0500,1.0188,0.0640,-0.3128,1.8616,-2.8763,245.4940,-50.4999,-19.2659,,,,
02_S5,04/05/2023,16:59:22.600,0.0498,1.0193,0.0642,-0.3128,1.8692,-2.9221,245.4940,-51.9595,-19.8497,,,,
02_S5,04/05/2023,16:59:22.700,0.0496,1.0198,0.0645,-0.2975,1.8768,-2.9068,245.9318,-52.1054,-20.2876,,,,
02_S5,04/05/2023,16:59:22.800,0.0496,1.0193,0.0635,-0.3052,1.8616,-2.9221,246.6616,-51.6676,-20.4335,,,,
02_S5,04/05/2023,16:59:22.900,0.0505,1.0193,0.0640,-0.3052,1.8616,-2.9068,245.4940,-50.4999,-20.1416,,,,
02_S5,04/05/2023,16:59:23.000,0.0500,1.0193,0.0632,-0.2975,1.8463,-2.8915,245.4940,-50.4999,-20.1416,Inactive,0,24.34,
02_S5,04/05/2023,16:59:23.100,0.0505,1.0190,0.0642,-0.3204,1.8616,-2.9297,246.2237,-50.9378,-20.2876,,,,
02_S5,04/05/2023,16:59:23.200,0.0503,1.0195,0.0652,-0.3128,1.8768,-2.9144,244.9101,-51.3757,-20.1416,,,,
02_S5,04/05/2023,16:59:23.300,0.0503,1.0195,0.0640,-0.3128,1.8997,-2.9144,246.0778,-49.9161,-19.2659,,,,
02_S5,04/05/2023,16:59:23.400,0.0498,1.0193,0.0645,-0.3281,1.8539,-2.8839,245.9318,-50.9378,-19.9956,,,,
02_S5,04/05/2023,16:59:23.500,0.0500,1.0190,0.0632,-0.3128,1.8845,-2.9221,245.9318,-50.9378,-19.9956,,,,
02_S5,04/05/2023,16:59:23.600,0.0493,1.0188,0.0642,-0.2899,1.8692,-2.8992,244.7642,-50.9378,-20.5795,,,,
02_S5,04/05/2023,16:59:23.700,0.0503,1.0198,0.0645,-0.3128,1.8539,-2.9068,246.2237,-51.2297,-19.9956,,,,
02_S5,04/05/2023,16:59:23.800,0.0505,1.0195,0.0659,-0.2975,1.8845,-2.8915,245.9318,-50.9378,-20.2876,,,,
02_S5,04/05/2023,16:59:23.900,0.0496,1.0200,0.0640,-0.3204,1.8616,-2.9068,244.6182,-51.9595,-20.4335,,,,
02_S5,04/05/2023,16:59:24.000,0.0508,1.0195,0.0645,-0.3281,1.8539,-2.9068,244.6182,-51.9595,-20.4335,Inactive,0,24.33,
02_S5,04/05/2023,16:59:24.100,0.0505,1.0193,0.0637,-0.3128,1.8692,-2.9068,245.6399,-51.2297,-20.5795,,,,
02_S5,04/05/2023,16:59:24.200,0.0491,1.0188,0.0637,-0.3281,1.8692,-2.9068,246.0778,-52.8352,-20.7254,,,,
02_S5,04/05/2023,16:59:24.300,0.0500,1.0195,0.0652,-0.3204,1.8997,-2.9068,245.6399,-49.1864,-20.5795,,,,
02_S5,04/05/2023,16:59:24.400,0.0498,1.0190,0.0649,-0.3128,1.8692,-2.8992,245.3480,-51.5216,-19.9956,,,,
02_S5,04/05/2023,16:59:24.500,0.0503,1.0188,0.0632,-0.3052,1.8616,-2.9068,245.3480,-51.5216,-19.9956,,,,
02_S5,04/05/2023,16:59:24.600,0.0503,1.0188,0.0635,-0.3128,1.8616,-2.9068,245.0561,-51.2297,-19.7037,,,,
02_S5,04/05/2023,16:59:24.700,0.0498,1.0198,0.0635,-0.3052,1.8997,-2.9144,245.9318,-50.9378,-18.5361,,,,
02_S5,04/05/2023,16:59:24.800,0.0498,1.0188,0.0645,-0.3128,1.9073,-2.8992,246.0778,-50.4999,-20.4335,,,,
02_S5,04/05/2023,16:59:24.900,0.0500,1.0190,0.0637,-0.2975,1.8997,-2.8915,245.6399,-52.1054,-20.2876,,,,
02_S5,04/05/2023,16:59:25.000,0.0500,1.0193,0.0642,-0.2975,1.8692,-2.9144,245.4940,-49.9161,-18.9740,Inactive,0,24.33,
02_S5,04/05/2023,16:59:25.100,0.0500,1.0188,0.0640,-0.3052,1.8692,-2.9068,245.4940,-49.9161,-18.9740,,,,
02_S5,04/05/2023,16:59:25.200,0.0496,1.0190,0.0637,-0.2975,1.8768,-2.8992,245.3480,-52.1054,-20.8714,,,,
02_S5,04/05/2023,16:59:25.300,0.0498,1.0198,0.0649,-0.3128,1.8539,-2.8992,245.6399,-51.2297,-20.8714,,,,
02_S5,04/05/2023,16:59:25.400,0.0508,1.0190,0.0645,-0.3281,1.8692,-2.9068,245.4940,-50.2080,-20.7254,,,,
02_S5,04/05/2023,16:59:25.500,0.0503,1.0190,0.0645,-0.3204,1.8616,-2.9068,246.6616,-49.9161,-20.1416,,,,
02_S5,04/05/2023,16:59:25.600,0.0498,1.0190,0.0649,-0.3052,1.8768,-2.8763,246.6616,-49.9161,-20.1416,,,,
02_S5,04/05/2023,16:59:25.700,0.0498,1.0190,0.0640,-0.2975,1.8539,-2.8915,245.4940,-50.4999,-20.1416,,,,
02_S5,04/05/2023,16:59:25.800,0.0496,1.0186,0.0632,-0.3052,1.8387,-2.8992,244.6182,-51.3757,-19.5578,,,,
02_S5,04/05/2023,16:59:25.900,0.0505,1.0193,0.0645,-0.3128,1.8387,-2.8915,245.9318,-51.5216,-18.8280,,,,
02_S5,04/05/2023,16:59:26.000,0.0508,1.0186,0.0645,-0.3128,1.8463,-2.8915,246.3697,-51.6676,-19.8497,Inactive,0,24.29,
02_S5,04/05/2023,16:59:26.100,0.0500,1.0193,0.0635,-0.3433,1.8387,-2.9068,246.3697,-51.6676,-19.8497,,,,
02_S5,04/05/2023,16:59:26.200,0.0505,1.0190,0.0637,-0.3204,1.8539,-2.9221,245.7859,-51.9595,-19.8497,,,,
02_S5,04/05/2023,16:59:26.300,0.0503,1.0186,0.0642,-0.3204,1.8768,-2.9221,245.6399,-50.9378,-19.9956,,,,
02_S5,04/05/2023,16:59:26.400,0.0505,1.0190,0.0652,-0.3052,1.8768,-2.9221,245.7859,-51.6676,-19.2659,,,,
02_S5,04/05/2023,16:59:26.500,0.0503,1.0188,0.0640,-0.3357,1.8539,-2.9297,245.3480,-50.3540,-17.9523,,,,
02_S5,04/05/2023,16:59:26.600,0.0498,1.0186,0.0637,-0.3204,1.8997,-2.9373,245.3480,-50.3540,-17.9523,,,,
02_S5,04/05/2023,16:59:26.700,0.0498,1.0186,0.0635,-0.3128,1.8616,-2.9526,245.3480,-50.3540,-17.9523,,,,
02_S5,04/05/2023,16:59:26.800,0.0503,1.0195,0.0649,-0.2975,1.8463,-2.9297,244.9101,-51.3757,-21.0173,,,,
02_S5,04/05/2023,16:59:26.900,0.0500,1.0190,0.0627,-0.3128,1.8845,-2.9297,246.3697,-51.3757,-20.1416,,,,
02_S5,04/05/2023,16:59:27.000,0.0503,1.0190,0.0630,-0.2975,1.8845,-2.9221,244.9101,-50.7919,-20.7254,Inactive,0,24.32,
02_S5,04/05/2023,16:59:27.100,0.0505,1.0195,0.0640,-0.3281,1.8768,-2.9526,245.3480,-50.9378,-20.2876,,,,
02_S5,04/05/2023,16:59:27.200,0.0500,1.0195,0.0647,-0.3204,1.8692,-2.9144,245.3480,-50.9378,-20.2876,,,,
02_S5,04/05/2023,16:59:27.300,0.0498,1.0193,0.0627,-0.3052,1.8539,-2.8992,246.8075,-51.2297,-20.8714,,,,
02_S5,04/05/2023,16:59:27.400,0.0505,1.0198,0.0630,-0.2899,1.8616,-2.9297,246.8075,-50.6459,-19.9956,,,,
02_S5,04/05/2023,16:59:27.500,0.0500,1.0186,0.0640,-0.3052,1.8845,-2.9297,246.2237,-51.8135,-19.4118,,,,
02_S5,04/05/2023,16:59:27.600,0.0496,1.0193,0.0649,-0.3052,1.8845,-2.9221,246.8075,-51.8135,-19.4118,,,,
02_S5,04/05/2023,16:59:27.700,0.0510,1.0198,0.0642,-0.3204,1.8692,-2.9144,246.8075,-51.8135,-19.4118,,,,
02_S5,04/05/2023,16:59:27.800,0.0505,1.0190,0.0649,-0.3281,1.8768,-2.9144,245.6399,-51.5216,-19.4118,,,,
02_S5,04/05/2023,16:59:27.900,0.0505,1.0198,0.0640,-0.2823,1.8692,-2.9297,246.8075,-50.3540,-20.2876,,,,
02_S5,04/05/2023,16:59:28.000,0.0503,1.0195,0.0635,-0.3052,1.8768,-2.9297,246.5156,-51.8135,-20.2876,Inactive,0,24.3,
02_S5,04/05/2023,16:59:28.100,0.0503,1.0190,0.0647,-0.3128,1.8616,-2.9144,245.7859,-50.7919,-19.2659,,,,
02_S5,04/05/2023,16:59:28.200,0.0500,1.0195,0.0645,-0.2823,1.8768,-2.8915,245.7859,-50.7919,-19.2659,,,,
02_S5,04/05/2023,16:59:28.300,0.0500,1.0190,0.0635,-0.2899,1.8768,-2.9221,245.7859,-50.2080,-20.4335,,,,
02_S5,04/05/2023,16:59:28.400,0.0500,1.0195,0.0642,-0.2823,1.8311,-2.9297,246.0778,-51.9595,-19.5578,,,,
02_S5,04/05/2023,16:59:28.500,0.0498,1.0195,0.0652,-0.2823,1.8845,-2.8992,244.1804,-51.2297,-19.9956,,,,
02_S5,04/05/2023,16:59:28.600,0.0508,1.0195,0.0635,-0.3052,1.8616,-2.9144,245.6399,-50.6459,-18.8280,,,,
02_S5,04/05/2023,16:59:28.700,0.0498,1.0183,0.0642,-0.3052,1.8616,-2.9221,246.9535,-50.2080,-20.1416,,,,
02_S5,04/05/2023,16:59:28.800,0.0500,1.0200,0.0642,-0.3281,1.8616,-2.9297,246.9535,-50.2080,-20.1416,,,,
02_S5,04/05/2023,16:59:28.900,0.0503,1.0188,0.0642,-0.3052,1.8692,-2.9297,247.2454,-50.2080,-19.8497,,,,
02_S5,04/05/2023,16:59:29.000,0.0493,1.0186,0.0637,-0.2975,1.8616,-2.9221,246.5156,-51.8135,-19.7037,Inactive,0,24.3,
02_S5,04/05/2023,16:59:29.100,0.0491,1.0186,0.0642,-0.3052,1.8768,-2.9068,247.3914,-51.2297,-19.9956,,,,
02_S5,04/05/2023,16:59:29.200,0.0496,1.0190,0.0652,-0.3052,1.8539,-2.9297,245.6399,-52.1054,-19.4118,,,,
02_S5,04/05/2023,16:59:29.300,0.0508,1.0190,0.0642,-0.2975,1.8692,-2.9449,245.6399,-52.1054,-19.4118,,,,
02_S5,04/05/2023,16:59:29.400,0.0510,1.0188,0.0640,-0.3052,1.8768,-2.9144,245.7859,-50.7919,-19.2659,,,,
02_S5,04/05/2023,16:59:29.500,0.0503,1.0190,0.0635,-0.3052,1.8845,-2.9221,248.2671,-51.8135,-20.2876,,,,
02_S5,04/05/2023,16:59:29.600,0.0498,1.0190,0.0642,-0.2899,1.8463,-2.9297,247.2454,-49.9161,-18.9740,,,,
02_S5,04/05/2023,16:59:29.700,0.0500,1.0193,0.0632,-0.3128,1.8539,-2.9221,246.0778,-51.3757,-19.2659,,,,
02_S5,04/05/2023,16:59:29.800,0.0510,1.0193,0.0637,-0.3128,1.8692,-2.9144,246.0778,-51.3757,-19.2659,,,,
02_S5,04/05/2023,16:59:29.900,0.0508,1.0195,0.0645,-0.3128,1.8921,-2.9297,246.2237,-51.5216,-19.1199,,,,
02_S5,04/05/2023,16:59:30.000,0.0510,1.0183,0.0640,-0.2975,1.8692,-2.8992,246.9535,-50.7919,-19.5578,Inactive,0,24.28,
02_S5,04/05/2023,16:59:30.100,0.0498,1.0198,0.0647,-0.2899,1.8463,-2.9297,247.9752,-52.6892,-17.0766,,,,
02_S5,04/05/2023,16:59:30.200,0.0500,1.0181,0.0654,-0.3128,1.8539,-2.9297,251.1861,-53.2731,-17.9523,,,,
02_S5,04/05/2023,16:59:30.300,0.0500,1.0188,0.0630,-0.3204,1.8768,-2.9373,251.1861,-53.2731,-17.9523,,,,
02_S5,04/05/2023,16:59:30.400,0.0503,1.0193,0.0640,-0.2975,1.8539,-2.9373,256.1486,-55.0245,-22.3309,,,,
02_S5,04/05/2023,16:59:30.500,0.0500,1.0188,0.0637,-0.2899,1.8845,-2.9068,267.3870,-53.7109,-38.2398,,,,
02_S5,04/05/2023,16:59:30.600,0.0503,1.0193,0.0649,-0.2899,1.8616,-2.9068,269.2844,-40.4291,-70.4956,,,,
02_S5,04/05/2023,16:59:30.700,0.0493,1.0205,0.0647,-0.2975,1.8616,-2.9068,245.0561,-40.4291,-82.4638,,,,
02_S5,04/05/2023,16:59:30.800,0.0491,1.0190,0.0637,-0.2975,1.8845,-2.9144,232.2122,-52.3973,-68.4522,,,,
02_S5,04/05/2023,16:59:30.900,0.0498,1.0195,0.0642,-0.3052,1.8997,-2.9297,232.2122,-52.3973,-68.4522,,,,
02_S5,04/05/2023,16:59:31.000,0.0498,1.0193,0.0642,-0.3128,1.8845,-2.9068,228.5633,-54.0028,-54.0028,Inactive,0,24.27,
02_S5,04/05/2023,16:59:31.100,0.0505,1.0195,0.0635,-0.3052,1.8692,-2.9373,219.9521,-47.4349,-36.0505,,,,
02_S5,04/05/2023,16:59:31.200,0.0508,1.0193,0.0645,-0.2975,1.8921,-2.9373,237.3206,-44.6618,11.3844,,,,
02_S5,04/05/2023,16:59:31.300,0.0503,1.0188,0.0649,-0.3204,1.8692,-2.9221,256.5864,-92.5346,63.9277,,,,
02_S5,04/05/2023,16:59:31.400,0.0498,1.0193,0.0640,-0.2975,1.8921,-2.9221,256.5864,-92.5346,63.9277,,,,
02_S5,04/05/2023,16:59:31.500,0.0500,1.0195,0.0654,-0.2899,1.8692,-2.9221,248.8509,-115.1574,48.0187,,,,
02_S5,04/05/2023,16:59:31.600,0.0498,1.0190,0.0640,-0.3128,1.8692,-2.9297,245.2020,-114.4276,8.4653,,,,
02_S5,04/05/2023,16:59:31.700,0.0505,1.0193,0.0645,-0.3128,1.8845,-2.9144,239.5099,-89.7615,-27.8771,,,,
02_S5,04/05/2023,16:59:31.800,0.0500,1.0186,0.0657,-0.2975,1.8921,-2.8992,249.1428,-65.5332,-50.6459,,,,
02_S5,04/05/2023,16:59:31.900,0.0503,1.0190,0.0642,-0.3052,1.8845,-2.9068,249.1428,-65.5332,-50.6459,,,,
02_S5,04/05/2023,16:59:32.000,0.0505,1.0195,0.0637,-0.2899,1.8692,-2.9068,244.6182,-58.9653,-50.2080,Inactive,0,24.26,
02_S5,04/05/2023,16:59:32.100,0.0503,1.0183,0.0640,-0.2823,1.8845,-2.8992,243.3047,-73.4147,-49.1864,,,,
02_S5,04/05/2023,16:59:32.200,0.0503,1.0186,0.0652,-0.3281,1.8845,-2.9068,253.2295,-74.8742,-43.6401,,,,
02_S5,04/05/2023,16:59:32.300,0.0503,1.0188,0.0645,-0.3052,1.8768,-2.9144,256.1486,-62.3222,-36.6344,,,,
02_S5,04/05/2023,16:59:32.400,0.0500,1.0193,0.0649,-0.3052,1.8845,-2.9144,256.5864,-71.5173,-38.2398,,,,
02_S5,04/05/2023,16:59:32.500,0.0500,1.0190,0.0635,-0.3052,1.8921,-2.8839,256.5864,-71.5173,-38.2398,,,,
02_S5,04/05/2023,16:59:32.600,0.0500,1.0190,0.0642,-0.3128,1.8845,-2.8992,273.2251,-80.2745,-44.6618,,,,
02_S5,04/05/2023,16:59:32.700,0.0505,1.0188,0.0642,-0.3204,1.8768,-2.9297,327.2280,-103.3351,-77.9392,,,,
02_S5,04/05/2023,16:59:32.800,0.0508,1.0193,0.0630,-0.3128,1.8768,-2.9068,460.9215,-195.5778,-164.0518,,,,
02_S5,04/05/2023,16:59:32.900,0.0500,1.0186,0.0623,-0.2975,1.8845,-2.8992,548.7855,-234.4015,-182.4420,,,,
02_S5,04/05/2023,16:59:33.000,0.0503,1.0188,0.0630,-0.3204,1.9150,-2.9068,548.7855,-234.4015,-182.4420,Inactive,0,24.27,
02_S5,04/05/2023,16:59:33.100,0.0505,1.0193,0.0635,-0.3204,1.9073,-2.8915,649.2016,-229.4391,-261.8408,,,,
02_S5,04/05/2023,16:59:33.200,0.0500,1.0193,0.0645,-0.3204,1.8845,-2.9068,1063.7098,-397.5776,-603.6641,,,,
02_S5,04/05/2023,16:59:33.300,0.0496,1.0188,0.0649,-0.2899,1.8768,-2.8915,2026.5657,-409.6918,-1699.9216,,,,TIMEMARK!
02_S5,04/05/2023,16:59:33.400,0.0500,1.0195,0.0645,-0.3281,1.8997,-2.8992,2450.9988,-111.6545,-2331.0249,,,,
02_S5,04/05/2023,16:59:33.500,0.0505,1.0190,0.0635,-0.2213,1.8997,-2.9068,2450.9988,-111.6545,-2331.0249,,,,
02_S5,04/05/2023,16:59:33.600,0.0496,1.0188,0.0635,-0.2747,1.8616,-2.9144,1911.9922,-68.0144,-2870.0316,,,,
02_S5,04/05/2023,16:59:33.700,0.0496,1.0183,0.0632,-0.2747,1.8539,-2.9144,1748.0863,211.7787,-3033.9375,,,,
02_S5,04/05/2023,16:59:33.800,0.0498,1.0190,0.0625,-0.2747,1.8539,-2.9144,1307.3064,716.1943,-3474.7174,,,,
02_S5,04/05/2023,16:59:33.900,0.0508,1.0186,0.0645,-0.3128,1.8539,-2.8839,857.4774,627.7464,-3924.5464,,,,
02_S5,04/05/2023,16:59:34.000,0.0496,1.0198,0.0632,-0.2823,1.8463,-2.8839,857.4774,627.7464,-3924.5464,Inactive,0,24.28,
02_S5,04/05/2023,16:59:34.100,0.0500,1.0195,0.0635,-0.2747,1.8539,-2.8915,594.6150,592.2797,-4187.4088,,,,
02_S5,04/05/2023,16:59:34.200,0.0493,1.0193,0.0642,-0.2823,1.8616,-2.9068,1001.2417,596.6583,-3780.7821,,,,
02_S5,04/05/2023,16:59:34.300,0.0505,1.0190,0.0625,-0.3052,1.8311,-2.9068,940.9629,698.6799,-3841.0609,,,,
02_S5,04/05/2023,16:59:34.400,0.0505,1.0193,0.0637,-0.3357,1.8692,-2.9068,880.9759,817.9240,-3901.0478,,,,
02_S5,04/05/2023,16:59:34.500,0.0483,1.0195,0.0632,-0.3128,1.8616,-2.8992,790.1928,789.9009,-3991.8310,,,,
02_S5,04/05/2023,16:59:34.600,0.0488,1.0198,0.0637,-0.3204,1.8768,-2.8915,790.1928,789.9009,-3991.8310,,,,
02_S5,04/05/2023,16:59:34.700,0.0503,1.0193,0.0654,-0.3052,1.8845,-2.8763,704.9559,704.9559,-4077.0679,,,,
02_S5,04/05/2023,16:59:34.800,0.0500,1.0188,0.0659,-0.5035,1.8997,-2.8992,1172.2993,-437.8608,-710.5021,,,,
02_S5,04/05/2023,16:59:34.900,0.0500,1.0190,0.0659,-0.3281,1.8311,-2.9144,271.6196,-71.9551,-10.6546,,,,
02_S5,04/05/2023,16:59:35.000,0.0503,1.0190,0.0645,-0.3204,1.8616,-2.8992,249.4347,-57.6517,-3.9407,Inactive,0,24.27,
02_S5,04/05/2023,16:59:35.100,0.0496,1.0195,0.0645,-0.3281,1.8921,-2.8763,249.4347,-57.6517,-3.9407,,,,
02_S5,04/05/2023,16:59:35.200,0.0493,1.0193,0.0642,-0.2899,1.9073,-2.8839,241.9911,-51.9595,-6.4220,,,,
02_S5,04/05/2023,16:59:35.300,0.0493,1.0195,0.0635,-0.3052,1.8692,-2.8992,234.6934,-48.1647,-7.0058,,,,
02_S5,04/05/2023,16:59:35.400,0.0508,1.0193,0.0647,-0.3052,1.8845,-2.8915,231.9203,-48.6025,-6.5679,,,,
02_S5,04/05/2023,16:59:35.500,0.0513,1.0195,0.0652,-0.3510,1.9073,-2.8915,231.6284,-47.1430,-6.8598,,,,
02_S5,04/05/2023,16:59:35.600,0.0513,1.0195,0.0647,-0.2975,1.9150,-2.8992,231.6284,-47.1430,-6.8598,,,,
02_S5,04/05/2023,16:59:35.700,0.0491,1.0198,0.0645,-0.3128,1.8845,-2.9068,231.0445,-46.5592,-6.5679,,,,
02_S5,04/05/2023,16:59:35.800,0.0488,1.0193,0.0632,-0.3052,1.8768,-2.8992,230.1688,-48.3106,-6.2760,,,,
02_S5,04/05/2023,16:59:35.900,0.0496,1.0193,0.0645,-0.3052,1.8539,-2.8839,231.0445,-46.2673,-6.2760,,,,
02_S5,04/05/2023,16:59:36.000,0.0000,0.0000,0.0000,0.0000,0.0000,0.0000,0.0000,0.0000,0.0000,Inactive,,21,Power off command received.
