TagID;Date;Time;accX;accY;accZ;gyroX;gyroY;gyroZ;compX;compY;compZ;Activity;Depth;Temp. (?C);Metadata
04_S11;04/05/2023;16:19:26.000;0.1060;0.4136;0.8889;-183.868;-101.700;-78.964;-77.355;-13.136;-153.251;Active;692.442.631.300.004;-368.68;
04_S11;04/05/2023;16:19:26.100;0.1365;0.3816;0.9463;-438.766;-186.539;-138.168;-46.705;-20.434;-131.358;;;;
04_S11;04/05/2023;16:19:26.200;0.1538;0.2805;0.9932;-515.594;39.673;-31.281;-24.812;-36.488;-103.627;;;;
04_S11;04/05/2023;16:19:26.300;0.0991;0.2073;10.237;-756.378;137.100;-113.297;0.8757;-14.595;-70.058;;;;
04_S11;04/05/2023;16:19:26.400;0.1042;0.1260;10.332;-694.199;163.345;-149.994;0.8757;-14.595;-70.058;;;;
04_S11;04/05/2023;16:19:26.500;0.1096;0.0444;10.427;-631.943;189.667;-186.768;0.8757;-14.595;-70.058;;;;
04_S11;04/05/2023;16:19:26.600;0.0288;-0.0505;10.327;-552.216;106.735;-86.670;70.058;-11.676;-52.543;;;;
04_S11;04/05/2023;16:19:26.700;0.0583;-0.0708;10.032;-434.418;0.8011;-0.4349;89.032;-0.4379;-18.974;;;;
04_S11;04/05/2023;16:19:26.800;0.0847;-0.2297;10.022;-569.916;-183.716;-22.507;129.899;-13.136;-27.731;;;;
04_S11;04/05/2023;16:19:26.900;0.1218;-0.3081;0.9951;-530.090;-137.482;222.778;162.008;-21.893;-0.1460;;;;
04_S11;04/05/2023;16:19:27.000;0.1128;-0.3630;0.9795;-510.406;-66.528;169.373;162.008;-21.893;-0.1460;Inactive;0;23.85;
04_S11;04/05/2023;16:19:27.100;0.0691;-0.4768;0.9055;-727.768;203.094;44.174;197.037;-24.812;-0.7298;;;;
04_S11;04/05/2023;16:19:27.200;0.0879;-0.6650;0.7903;-1.047.592;75.836;-93.842;271.474;-0.8757;0.2919;;;;
04_S11;04/05/2023;16:19:27.300;0.1064;-0.7480;0.6919;-842.133;76.447;-251.312;341.531;0.2919;-23.353;;;;
04_S11;04/05/2023;16:19:27.400;0.1125;-0.8354;0.5657;-984.497;-0.5646;-20.905;399.913;-0.2919;-64.220;;;;
04_S11;04/05/2023;16:19:27.500;0.1135;-0.9231;0.3821;-1.064.301;50.964;124.664;399.913;-0.2919;-64.220;;;;
04_S11;04/05/2023;16:19:27.600;0.0813;-0.9333;0.2932;-698.624;261.765;-0.7629;459.754;0.1460;-112.384;;;;
04_S11;04/05/2023;16:19:27.700;0.1064;-0.9595;0.1836;-609.055;512.848;-208.969;483.106;16.055;-150.332;;;;
04_S11;04/05/2023;16:19:27.800;0.1230;-0.9658;0.0955;-481.186;648.117;-144.958;516.676;23.353;-210.173;;;;
04_S11;04/05/2023;16:19:27.900;0.1294;-0.9751;0.1096;-458.221;684.052;-45.547;523.973;45.246;-246.662;;;;
04_S11;04/05/2023;16:19:28.000;0.0872;-0.9661;0.0349;-67.749;708.084;80.643;523.973;45.246;-246.662;Inactive;0;23.82;
04_S11;04/05/2023;16:19:28.100;0.1243;-10.632;0.0127;-144.730;507.736;166.931;523.973;54.003;-261.257;;;;
04_S11;04/05/2023;16:19:28.200;0.0200;-0.9646;0.0291;-224.380;154.037;442.886;510.838;84.653;-288.988;;;;
04_S11;04/05/2023;16:19:28.300;0.0127;-10.056;-0.0474;-109.406;510.178;63.782;513.757;105.087;-326.936;;;;
04_S11;04/05/2023;16:19:28.400;-0.0029;-0.9844;-0.0354;-14.801;310.974;49.820;516.676;96.329;-332.774;;;;
04_S11;04/05/2023;16:19:28.500;-0.0540;-0.9890;-0.0129;125.656;176.926;145.111;516.676;96.329;-332.774;;;;
04_S11;04/05/2023;16:19:28.600;-0.0212;-10.200;0.0078;288.925;284.119;57.678;500.621;115.303;-334.234;;;;
04_S11;04/05/2023;16:19:28.700;-0.0637;-0.9963;0.0759;226.517;41.580;189.972;490.404;131.358;-321.098;;;;
04_S11;04/05/2023;16:19:28.800;-0.0774;-0.9883;0.0173;-527.115;-81.940;97.733;504.999;122.601;-326.936;;;;
04_S11;04/05/2023;16:19:28.900;-0.1992;-0.8594;-0.3557;-2.295.456;-626.602;593.567;504.999;122.601;-326.936;;;;
04_S11;04/05/2023;16:19:29.000;-0.2410;-0.7559;-0.4197;-749.283;-123.596;253.601;449.537;157.630;-411.589;Inactive;0;23.82;
04_S11;04/05/2023;16:19:29.100;-0.1694;-0.8120;-0.5225;-118.561;683.746;-193.939;436.401;144.494;-450.997;;;;
04_S11;04/05/2023;16:19:29.200;-0.1851;-0.7751;-0.6052;-391.006;207.367;138.321;420.346;151.792;-490.404;;;;
04_S11;04/05/2023;16:19:29.300;-0.1880;-0.7102;-0.5984;-141.449;251.541;60.043;423.265;140.115;-504.999;;;;
04_S11;04/05/2023;16:19:29.400;-0.1357;-0.7236;-0.6553;-299.683;135.193;96.436;423.265;140.115;-504.999;;;;
04_S11;04/05/2023;16:19:29.500;-0.1248;-0.6619;-0.7051;-322.723;302.811;-21.439;405.751;134.277;-534.190;;;;
04_S11;04/05/2023;16:19:29.600;-0.0698;-0.6562;-0.7229;-303.574;170.135;0.7935;395.534;126.980;-561.921;;;;
04_S11;04/05/2023;16:19:29.700;-0.0828;-0.5447;-0.7820;-636.749;90.408;86.517;372.182;126.980;-582.355;;;;
04_S11;04/05/2023;16:19:29.800;-0.0835;-0.4841;-0.8616;-541.000;207.443;82.169;335.693;125.520;-598.410;;;;
04_S11;04/05/2023;16:19:29.900;-0.0991;-0.4146;-0.8613;-280.304;78.201;168.228;335.693;125.520;-598.410;;;;
04_S11;04/05/2023;16:19:30.000;-0.1616;-0.0793;-0.9250;-1.349.030;-262.756;131.226;243.743;150.332;-605.707;Inactive;0;23.81;
04_S11;04/05/2023;16:19:30.100;-0.1799;0.0396;-0.9426;-682.449;-53.329;70.801;189.740;151.792;-607.167;;;;
04_S11;04/05/2023;16:19:30.200;-0.1704;0.1736;-0.9534;-749.054;88.272;146.561;150.332;144.494;-596.950;;;;
04_S11;04/05/2023;16:19:30.300;-0.1487;0.3386;-0.9290;-978.928;107.040;201.950;150.332;144.494;-596.950;;;;
04_S11;04/05/2023;16:19:30.400;-0.1187;0.4932;-0.8447;-1.070.480;46.158;173.111;87.572;143.035;-572.138;;;;
04_S11;04/05/2023;16:19:30.500;-0.0906;0.6226;-0.7598;-741.425;88.348;195.007;30.650;132.818;-547.326;;;;
04_S11;04/05/2023;16:19:30.600;-0.0879;0.7266;-0.6731;-777.893;86.823;115.662;-0.2919;131.358;-522.514;;;;
04_S11;04/05/2023;16:19:30.700;-0.0662;0.7971;-0.5884;-715.332;78.201;-0.7248;-30.650;109.465;-474.349;;;;
04_S11;04/05/2023;16:19:30.800;-0.0835;0.8748;-0.4829;-820.618;64.850;-35.400;-30.650;109.465;-474.349;;;;
04_S11;04/05/2023;16:19:30.900;-0.1113;0.9446;-0.3979;-539.169;-76.675;-183.563;-42.327;112.384;-445.158;;;;
04_S11;04/05/2023;16:19:31.000;-0.1917;0.9263;-0.2908;-421.143;-196.228;-351.639;-30.650;141.575;-404.291;Inactive;0;23.84;
04_S11;04/05/2023;16:19:31.100;-0.1958;0.9297;-0.1885;-692.825;-126.038;-252.686;-23.353;145.954;-361.965;;;;
04_S11;04/05/2023;16:19:31.200;-0.1931;0.9980;-0.1079;-768.661;-35.629;271.835;-32.110;137.196;-318.179;;;;
04_S11;04/05/2023;16:19:31.300;-0.1501;10.049;0.0386;-782.166;-233.841;122.070;-32.110;137.196;-318.179;;;;
04_S11;04/05/2023;16:19:31.400;-0.1460;0.9370;0.2292;-813.370;-440.826;-12.512;-29.191;131.358;-251.040;;;;
04_S11;04/05/2023;16:19:31.500;-0.1809;0.9094;0.3831;-920.868;-336.914;-167.084;10.217;132.818;-191.199;;;;
04_S11;04/05/2023;16:19:31.600;-0.1721;0.8838;0.4983;-577.545;-266.876;-149.918;40.867;131.358;-145.954;;;;
04_S11;04/05/2023;16:19:31.700;-0.1921;0.8247;0.5530;-365.295;-186.157;-214.615;67.139;128.439;-122.601;;;;
04_S11;04/05/2023;16:19:31.800;-0.1689;0.8022;0.6389;-477.448;-152.664;47.302;67.139;128.439;-122.601;;;;
04_S11;04/05/2023;16:19:31.900;-0.1804;0.7170;0.7031;-566.406;-106.430;44.785;87.572;119.682;-102.168;;;;
04_S11;04/05/2023;16:19:32.000;-0.1372;0.6438;0.7725;-527.954;-241.241;-73.090;124.061;115.303;-74.436;Inactive;0;23.84;
04_S11;04/05/2023;16:19:32.100;-0.1138;0.6042;0.8313;-537.262;-219.193;-255.356;164.928;89.032;-59.841;;;;
04_S11;04/05/2023;16:19:32.200;-0.1206;0.5051;0.8992;-623.093;-178.452;-289.459;207.254;78.815;-46.705;;;;
04_S11;04/05/2023;16:19:32.300;-0.1331;0.4055;0.9404;-555.191;-46.616;-316.544;207.254;78.815;-46.705;;;;
04_S11;04/05/2023;16:19:32.400;-0.1362;0.3376;0.9189;-695.801;-12.589;-390.015;259.797;72.977;-37.948;;;;
04_S11;04/05/2023;16:19:32.500;-0.1514;-0.0730;0.9092;-1.850.815;-131.302;-203.476;367.803;67.139;-67.139;;;;
04_S11;04/05/2023;16:19:32.600;-0.1255;-0.7095;0.9243;-2.500.000;-241.394;-325.928;512.297;45.246;-208.714;;;;
04_S11;04/05/2023;16:19:32.700;-0.0906;-0.5825;0.8838;-308.380;180.893;-223.923;512.297;45.246;-208.714;;;;
04_S11;04/05/2023;16:19:32.800;-0.1875;-0.6187;0.8357;-519.333;713.806;-319.595;531.271;23.353;-233.526;;;;
04_S11;04/05/2023;16:19:32.900;-0.1309;-0.7617;0.5972;-1.054.993;1.025.467;-506.134;554.624;14.595;-294.826;;;;
04_S11;04/05/2023;16:19:33.000;-0.1494;-0.8508;0.4602;-795.746;753.860;-280.609;557.543;-23.353;-388.237;Inactive;0;23.85;
04_S11;04/05/2023;16:19:33.100;-0.2131;-0.9019;0.3535;-582.581;550.232;-0.9308;556.083;-30.650;-450.997;;;;
04_S11;04/05/2023;16:19:33.200;-0.2327;-0.9358;0.2419;-645.828;201.111;-76.141;556.083;-30.650;-450.997;;;;
04_S11;04/05/2023;16:19:33.300;-0.2109;-0.9666;0.1375;-758.133;44.556;-136.948;553.164;-39.407;-486.025;;;;
04_S11;04/05/2023;16:19:33.400;-0.1836;-0.9800;-0.0154;-781.250;108.490;-152.130;512.297;-42.327;-547.326;;;;
04_S11;04/05/2023;16:19:33.500;-0.1477;-0.9663;-0.0850;-460.892;47.913;-130.081;484.566;-61.301;-589.653;;;;
04_S11;04/05/2023;16:19:33.600;-0.1445;-0.9548;-0.1619;-390.701;60.806;-47.836;469.971;-70.058;-604.248;;;;
04_S11;04/05/2023;16:19:33.700;-0.1414;-0.9402;-0.2109;-386.505;50.964;-0.0153;469.971;-70.058;-604.248;;;;
04_S11;04/05/2023;16:19:33.800;-0.1304;-0.9302;-0.3555;-705.490;116.043;0.3128;442.239;-62.760;-626.141;;;;
04_S11;04/05/2023;16:19:33.900;-0.1326;-0.8723;-0.4348;-668.106;115.433;41.275;391.156;-81.734;-668.467;;;;
04_S11;04/05/2023;16:19:34.000;-0.1279;-0.7827;-0.5261;-724.792;191.803;55.084;357.586;-80.274;-672.846;Inactive;0;23.87;
04_S11;04/05/2023;16:19:34.100;-0.1118;-0.6919;-0.6365;-805.511;186.768;20.752;290.448;-94.870;-704.956;;;;
04_S11;04/05/2023;16:19:34.200;-0.0881;-0.6267;-0.7397;-663.223;200.653;32.196;290.448;-94.870;-704.956;;;;
04_S11;04/05/2023;16:19:34.300;-0.0664;-0.5251;-0.8196;-647.049;169.525;15.335;237.904;-109.465;-713.713;;;;
04_S11;04/05/2023;16:19:34.400;-0.0383;-0.4377;-0.8882;-597.687;189.667;41.885;197.037;-115.303;-699.118;;;;
04_S11;04/05/2023;16:19:34.500;-0.0347;-0.4243;-0.9028;-276.260;107.193;111.237;164.928;-135.737;-707.875;;;;
04_S11;04/05/2023;16:19:34.600;-0.0671;-0.2993;-0.9146;-416.489;62.103;297.165;150.332;-141.575;-704.956;;;;
04_S11;04/05/2023;16:19:34.700;-0.0808;-0.2300;-0.9631;-798.187;-233.383;207.825;150.332;-141.575;-704.956;;;;
04_S11;04/05/2023;16:19:34.800;-0.1394;-0.0959;-0.9507;-632.782;-297.394;236.588;78.815;-113.844;-688.901;;;;
04_S11;04/05/2023;16:19:34.900;-0.1641;0.0847;-0.9771;-835.114;-97.427;338.135;33.569;-115.303;-658.251;;;;
04_S11;04/05/2023;16:19:35.000;-0.2019;0.2693;-0.8811;-1.018.524;-267.258;440.979;-29.191;-131.358;-604.248;Inactive;0;23.86;
04_S11;04/05/2023;16:19:35.100;-0.2529;0.3591;-0.8816;-566.559;-238.266;177.689;-52.543;-116.763;-586.733;;;;
04_S11;04/05/2023;16:19:35.200;-0.2917;0.4561;-0.8289;-698.547;-234.222;126.495;-52.543;-116.763;-586.733;;;;
04_S11;04/05/2023;16:19:35.300;-0.2957;0.5454;-0.7927;-558.167;-162.201;137.939;-90.491;-122.601;-545.866;;;;
04_S11;04/05/2023;16:19:35.400;-0.2942;0.6299;-0.6941;-600.052;-156.403;146.103;-94.870;-121.141;-506.459;;;;
04_S11;04/05/2023;16:19:35.500;-0.3340;0.6863;-0.6094;-511.246;-290.527;61.493;-122.601;-131.358;-472.890;;;;
04_S11;04/05/2023;16:19:35.600;-0.3799;0.7434;-0.5408;-444.489;-377.197;62.561;-122.601;-113.844;-440.780;;;;
04_S11;04/05/2023;16:19:35.700;-0.4023;0.7759;-0.4612;-515.366;-280.991;46.005;-122.601;-113.844;-440.780;;;;
04_S11;04/05/2023;16:19:35.800;-0.3958;0.8250;-0.3650;-408.630;-113.754;82.169;-131.358;-128.439;-391.156;;;;
04_S11;04/05/2023;16:19:35.900;-0.3713;0.8569;-0.3325;-331.268;70.267;118.561;-147.413;-118.222;-375.101;;;;
04_S11;04/05/2023;16:19:36.000;-0.3284;0.9109;-0.3025;-325.012;162.811;94.299;-132.818;-124.061;-342.991;Inactive;0;23.87;
04_S11;04/05/2023;16:19:36.100;-0.3108;0.9402;-0.2434;-526.962;212.402;-0.8926;-126.980;-121.141;-307.962;;;;
04_S11;04/05/2023;16:19:36.200;-0.3276;0.9106;-0.1492;-614.395;236.969;-14.038;-126.980;-121.141;-307.962;;;;
04_S11;04/05/2023;16:19:36.300;-0.3162;0.9463;-0.0808;-552.673;0.9003;126.038;-118.222;-132.818;-252.500;;;;
04_S11;04/05/2023;16:19:36.400;-0.3462;0.9600;0.0474;-651.627;-107.956;-0.9766;-100.708;-132.818;-205.795;;;;
04_S11;04/05/2023;16:19:36.500;-0.3442;0.9561;0.1375;-481.796;-99.716;-139.389;-83.194;-132.818;-185.361;;;;
04_S11;04/05/2023;16:19:36.600;-0.3677;0.9280;0.1914;-623.322;-95.596;-162.659;-83.194;-132.818;-185.361;;;;
04_S11;04/05/2023;16:19:36.700;-0.3740;0.6672;0.6482;-1.823.959;0.6790;26.169;-59.841;-132.818;-135.737;;;;
04_S11;04/05/2023;16:19:36.800;-0.3511;0.7825;0.5168;-76.752;161.209;65.155;32.110;-116.763;-55.462;;;;
04_S11;04/05/2023;16:19:36.900;-0.3721;0.8113;0.5103;62.790;-66.147;-95.596;13.136;-121.141;-65.679;;;;
04_S11;04/05/2023;16:19:37.000;-0.4136;0.7637;0.5444;-181.274;-122.452;-416.870;0.5838;-108.006;-58.381;Inactive;0;23.89;
04_S11;04/05/2023;16:19:37.100;-0.4590;0.6697;0.6084;-502.777;73.929;-330.124;0.5838;-108.006;-58.381;;;;
04_S11;04/05/2023;16:19:37.200;-0.5156;0.6006;0.6316;-513.458;118.027;-257.645;55.462;-87.572;-32.110;;;;
04_S11;04/05/2023;16:19:37.300;-0.4851;0.5317;0.7583;-446.854;-292.969;-273.743;96.329;-84.653;-11.676;;;;
04_S11;04/05/2023;16:19:37.400;-0.5007;0.3623;0.8818;-898.590;-431.595;-319.366;122.601;-90.491;-0.5838;;;;
04_S11;04/05/2023;16:19:37.500;-0.4487;0.2441;0.9443;-832.901;-249.481;-415.497;197.037;-124.061;0.7298;;;;
04_S11;04/05/2023;16:19:37.600;-0.3940;0.0706;0.9636;-798.492;-246.048;-427.094;197.037;-124.061;0.7298;;;;
04_S11;04/05/2023;16:19:37.700;-0.4011;-0.0210;0.9358;-677.338;-0.2518;-525.513;259.797;-143.035;0.5838;;;;
04_S11;04/05/2023;16:19:37.800;-0.3494;-0.2498;0.9653;-701.218;60.959;-710.144;297.745;-148.873;0.5838;;;;
04_S11;04/05/2023;16:19:37.900;-0.4028;-0.3064;0.8992;-486.603;213.165;-463.638;332.774;-151.792;-0.5838;;;;
04_S11;04/05/2023;16:19:38.000;-0.3999;-0.4460;0.8271;-677.490;294.952;-643.082;369.263;-144.494;-24.812;Inactive;0;23.9;
04_S11;04/05/2023;16:19:38.100;-0.3477;-0.6943;0.6726;-1.034.088;207.443;-784.149;369.263;-144.494;-24.812;;;;
04_S11;04/05/2023;16:19:38.200;-0.2607;-0.8416;0.5120;-1.109.924;264.435;-714.493;439.320;-164.928;-71.517;;;;
04_S11;04/05/2023;16:19:38.300;-0.2407;-0.8735;0.4250;-827.179;207.443;-279.007;478.728;-178.063;-108.006;;;;
04_S11;04/05/2023;16:19:38.400;-0.1660;-0.9282;0.2812;-616.608;179.901;-310.287;502.080;-189.740;-154.711;;;;
04_S11;04/05/2023;16:19:38.500;-0.1604;-0.9475;0.2686;-159.683;25.330;-224.152;502.080;-207.254;-160.549;;;;
04_S11;04/05/2023;16:19:38.600;-0.1421;-0.9473;0.2593;-229.263;124.588;-245.514;502.080;-207.254;-160.549;;;;
04_S11;04/05/2023;16:19:38.700;-0.1301;-0.9634;0.0632;-1.241.302;126.038;-50.049;509.378;-205.795;-176.604;;;;
04_S11;04/05/2023;16:19:38.800;-0.1636;-0.9451;-0.2295;-1.602.402;47.226;118.942;550.245;-197.037;-293.367;;;;
04_S11;04/05/2023;16:19:38.900;-0.1401;-0.8950;-0.3655;-747.757;0.4044;0.9003;557.543;-204.335;-367.803;;;;
04_S11;04/05/2023;16:19:39.000;-0.1533;-0.8301;-0.4790;-737.686;-166.168;36.469;554.624;-198.497;-443.699;Inactive;0;23.9;
04_S11;04/05/2023;16:19:39.100;-0.1672;-0.7734;-0.5671;-644.150;-96.741;12.741;554.624;-198.497;-443.699;;;;
04_S11;04/05/2023;16:19:39.200;-0.1670;-0.6968;-0.6626;-638.504;149.460;59.967;537.109;-192.659;-464.132;;;;
04_S11;04/05/2023;16:19:39.300;-0.1448;-0.5898;-0.7693;-898.895;375.748;158.539;515.216;-194.118;-515.216;;;;
04_S11;04/05/2023;16:19:39.400;-0.0789;-0.4150;-0.8689;-1.108.475;437.393;210.342;465.592;-220.390;-576.517;;;;
04_S11;04/05/2023;16:19:39.500;-0.0708;-0.2954;-0.9365;-699.768;342.789;187.225;437.861;-210.173;-601.329;;;;
04_S11;04/05/2023;16:19:39.600;-0.0188;-0.1990;-0.9648;-638.275;314.178;146.179;437.861;-210.173;-601.329;;;;
04_S11;04/05/2023;16:19:39.700;0.0422;-0.0667;-0.9575;-768.814;307.770;281.143;414.508;-224.769;-621.762;;;;
04_S11;04/05/2023;16:19:39.800;0.0964;0.1121;-0.9482;-964.813;329.971;445.404;366.344;-217.471;-640.736;;;;
04_S11;04/05/2023;16:19:39.900;0.1360;0.2327;-0.9492;-717.010;211.868;331.039;315.260;-242.283;-668.467;;;;
04_S11;04/05/2023;16:19:40.000;0.1511;0.3254;-0.9258;-627.670;60.043;298.996;284.610;-240.823;-681.603;Inactive;0;23.93;
04_S11;04/05/2023;16:19:40.100;0.1497;0.4204;-0.8965;-641.556;16.251;219.955;284.610;-240.823;-681.603;;;;
04_S11;04/05/2023;16:19:40.200;0.1521;0.4844;-0.8491;-507.355;-14.267;0.9689;259.797;-236.445;-694.739;;;;
04_S11;04/05/2023;16:19:40.300;0.1309;0.5776;-0.8052;-549.164;-31.204;-160.294;201.416;-221.849;-697.658;;;;
04_S11;04/05/2023;16:19:40.400;0.1035;0.6697;-0.7312;-684.967;-56.915;-179.520;151.792;-221.849;-688.901;;;;
04_S11;04/05/2023;16:19:40.500;0.0884;0.7559;-0.6514;-640.945;-42.267;-130.768;105.087;-213.092;-694.739;;;;
04_S11;04/05/2023;16:19:40.600;0.0715;0.8127;-0.5708;-523.987;0.4654;-107.880;105.087;-213.092;-694.739;;;;
04_S11;04/05/2023;16:19:40.700;0.0845;0.9031;-0.4155;-1.145.248;183.640;-74.081;64.220;-204.335;-674.306;;;;
04_S11;04/05/2023;16:19:40.800;0.0938;10.332;-0.1267;-1.732.330;153.732;157.471;-26.272;-236.445;-583.814;;;;
04_S11;04/05/2023;16:19:40.900;0.1135;10.088;-0.0652;-299.530;-13.733;-38.910;-51.084;-223.309;-564.840;;;;
04_S11;04/05/2023;16:19:41.000;0.0466;10.020;-0.0713;19.455;-74.310;-167.999;-51.084;-223.309;-564.840;Inactive;0;23.94;
04_S11;04/05/2023;16:19:41.100;0.0183;10.095;-0.0486;-164.261;0.3967;-187.531;-51.084;-223.309;-553.164;;;;
04_S11;04/05/2023;16:19:41.200;0.0076;10.205;-0.0088;-212.479;-89.035;-95.367;-70.058;-213.092;-534.190;;;;
04_S11;04/05/2023;16:19:41.300;-0.0239;10.293;0.0757;-557.785;-164.719;-95.749;-84.653;-195.578;-525.433;;;;
04_S11;04/05/2023;16:19:41.400;-0.0322;10.010;0.2124;-743.103;-274.734;-82.932;-102.168;-178.063;-472.890;;;;
04_S11;04/05/2023;16:19:41.500;-0.0164;0.9436;0.3442;-830.307;-309.906;-109.253;-102.168;-178.063;-472.890;;;;
04_S11;04/05/2023;16:19:41.600;-0.0361;0.8975;0.4895;-848.846;-202.637;-130.692;-132.818;-162.008;-415.968;;;;
04_S11;04/05/2023;16:19:41.700;-0.0527;0.8240;0.6160;-793.686;-12.283;-170.517;-128.439;-166.387;-344.450;;;;
04_S11;04/05/2023;16:19:41.800;-0.0688;0.7468;0.7109;-796.204;0.3204;-167.847;-122.601;-145.954;-288.988;;;;
04_S11;04/05/2023;16:19:41.900;-0.0762;0.6379;0.7917;-658.798;-96.512;-219.803;-109.465;-118.222;-237.904;;;;
04_S11;04/05/2023;16:19:42.000;-0.0903;0.5813;0.8662;-540.390;-268.631;-284.424;-109.465;-118.222;-237.904;Inactive;0;23.97;
04_S11;04/05/2023;16:19:42.100;-0.0759;0.4580;0.9309;-653.610;-198.898;-300.827;-100.708;-109.465;-202.876;;;;
04_S11;04/05/2023;16:19:42.200;-0.0457;0.3738;0.9712;-586.929;-273.285;-235.672;-72.977;-93.410;-154.711;;;;
04_S11;04/05/2023;16:19:42.300;-0.0142;0.2705;0.9880;-489.273;-192.490;-195.999;-58.381;-102.168;-122.601;;;;
04_S11;04/05/2023;16:19:42.400;0.0002;0.2312;0.9934;-381.012;-145.111;-172.882;-36.488;-91.951;-109.465;;;;
04_S11;04/05/2023;16:19:42.500;0.0403;0.1833;0.9763;-346.756;-58.823;-108.643;-36.488;-91.951;-109.465;;;;
04_S11;04/05/2023;16:19:42.600;0.0212;0.0647;10.505;-645.752;-147.934;-175.171;-20.434;-110.925;-90.491;;;;
04_S11;04/05/2023;16:19:42.700;0.0071;-0.0820;10.767;-758.896;74.692;-227.356;23.353;-93.410;-52.543;;;;
04_S11;04/05/2023;16:19:42.800;0.0000;-0.1296;10.186;-413.971;149.002;-161.057;61.301;-64.220;-35.029;;;;
04_S11;04/05/2023;16:19:42.900;0.0032;-0.1614;10.015;-292.282;13.885;-108.490;91.951;-71.517;-13.136;;;;
04_S11;04/05/2023;16:19:43.000;0.0488;-0.2559;10.281;-262.756;-56.305;-36.163;91.951;-71.517;-13.136;Inactive;0;23.94;
04_S11;04/05/2023;16:19:43.100;-0.0017;-0.3005;10.002;-426.407;39.749;175.018;116.763;-75.896;-20.434;;;;
04_S11;04/05/2023;16:19:43.200;0.0015;-0.3674;0.9644;-508.728;62.790;-0.5569;150.332;-77.355;-0.4379;;;;
04_S11;04/05/2023;16:19:43.300;-0.0142;-0.4480;0.9011;-539.322;28.076;24.567;189.740;-61.301;-0.5838;;;;
04_S11;04/05/2023;16:19:43.400;-0.0022;-0.5454;0.8674;-549.622;-78.430;78.888;234.985;-77.355;10.217;;;;
04_S11;04/05/2023;16:19:43.500;0.0234;-0.6475;0.8350;-606.918;-110.092;217.590;234.985;-77.355;10.217;;;;
04_S11;04/05/2023;16:19:43.600;-0.0107;-0.6660;0.7810;-518.112;0.9842;71.869;265.636;-90.491;0.2919;;;;
04_S11;04/05/2023;16:19:43.700;0.0205;-0.7910;0.6519;-797.882;-14.191;-88.120;331.315;-83.194;-0.4379;;;;
04_S11;04/05/2023;16:19:43.800;0.0149;-0.8584;0.5261;-812.531;39.749;-12.894;394.075;-87.572;-17.514;;;;
04_S11;04/05/2023;16:19:43.900;0.0090;-0.9136;0.4077;-758.896;104.523;-36.240;424.725;-86.113;-62.760;;;;
04_S11;04/05/2023;16:19:44.000;0.0271;-0.9475;0.3003;-665.283;117.569;-67.978;424.725;-86.113;-62.760;Inactive;0;23.98;
04_S11;04/05/2023;16:19:44.100;0.0244;-0.9802;0.1880;-686.188;170.364;-28.305;465.592;-74.436;-83.194;;;;
04_S11;04/05/2023;16:19:44.200;0.0146;-0.9897;0.0649;-738.602;173.950;103.302;504.999;-78.815;-143.035;;;;
04_S11;04/05/2023;16:19:44.300;-0.0190;-0.9832;-0.0784;-702.667;201.645;173.874;528.352;-55.462;-198.497;;;;
04_S11;04/05/2023;16:19:44.400;-0.0491;-0.9663;-0.1812;-726.471;203.705;207.825;540.028;-29.191;-253.959;;;;
04_S11;04/05/2023;16:19:44.500;-0.1001;-0.9114;-0.3708;-915.451;140.610;477.066;540.028;-29.191;-253.959;;;;
04_S11;04/05/2023;16:19:44.600;-0.1865;-0.8145;-0.4915;-711.823;-29.984;355.072;556.083;0.4379;-302.124;;;;
04_S11;04/05/2023;16:19:44.700;-0.2004;-0.7612;-0.5752;-894.928;-252.457;-0.1678;551.705;32.110;-350.289;;;;
04_S11;04/05/2023;16:19:44.800;-0.2307;-0.6333;-0.7056;-1.275.101;-217.514;-60.272;548.786;0.2919;-446.618;;;;
04_S11;04/05/2023;16:19:44.900;-0.2395;-0.5225;-0.7781;-799.942;-14.725;24.109;548.786;0.2919;-446.618;;;;
04_S11;04/05/2023;16:19:45.000;-0.2185;-0.4358;-0.8486;-528.946;124.588;99.792;522.514;20.434;-502.080;Inactive;0;24.02;
04_S11;04/05/2023;16:19:45.100;-0.2500;-0.3120;-0.8875;-771.332;30.365;316.544;504.999;14.595;-537.109;;;;
04_S11;04/05/2023;16:19:45.200;-0.2390;-0.1450;-0.9177;-752.106;116.043;404.739;459.754;56.922;-585.274;;;;
04_S11;04/05/2023;16:19:45.300;-0.1553;0.0032;-0.9495;-720.139;424.881;307.693;402.832;35.029;-639.277;;;;
04_S11;04/05/2023;16:19:45.400;-0.1189;0.1343;-0.9758;-716.248;297.699;307.693;402.832;35.029;-639.277;;;;
04_S11;04/05/2023;16:19:45.500;-0.0833;0.2646;-0.9534;-618.286;224.762;132.523;360.505;30.650;-675.765;;;;
04_S11;04/05/2023;16:19:45.600;-0.0271;0.4072;-0.9297;-1.074.829;175.705;-41.656;318.179;0.5838;-685.982;;;;
04_S11;04/05/2023;16:19:45.700;-0.1033;0.4990;-0.8145;-1.196.213;-44.861;-254.059;227.688;14.595;-718.092;;;;
04_S11;04/05/2023;16:19:45.800;-0.1382;0.7024;-0.6575;-1.293.259;-257.111;-117.416;119.682;29.191;-688.901;;;;
04_S11;04/05/2023;16:19:45.900;-0.2000;0.8438;-0.4741;-1.239.700;-343.628;0.5417;119.682;29.191;-688.901;;;;
04_S11;04/05/2023;16:19:46.000;-0.2151;0.9280;-0.3127;-884.018;-378.723;90.866;35.029;67.139;-642.196;Inactive;0;24;
04_S11;04/05/2023;16:19:46.100;-0.2031;0.9578;-0.1626;-775.452;-411.758;26.932;-0.2919;75.896;-589.653;;;;
04_S11;04/05/2023;16:19:46.200;-0.2268;0.9700;-0.0435;-789.032;-403.519;-53.864;-27.731;89.032;-529.812;;;;
04_S11;04/05/2023;16:19:46.300;-0.2688;10.073;0.0588;-664.749;-232.925;-81.940;-39.407;100.708;-480.187;;;;
04_S11;04/05/2023;16:19:46.400;-0.2483;0.9302;0.3037;-1.181.335;-309.830;-51.575;-39.407;100.708;-480.187;;;;
04_S11;04/05/2023;16:19:46.500;-0.2554;0.8401;0.5305;-1.004.944;-253.525;-46.539;-52.543;119.682;-414.508;;;;
04_S11;04/05/2023;16:19:46.600;-0.2283;0.6299;0.7510;-1.458.893;-205.612;-157.623;-55.462;119.682;-344.450;;;;
04_S11;04/05/2023;16:19:46.700;-0.2102;0.6367;0.7495;-478.821;-318.375;-78.888;-24.812;121.141;-249.581;;;;
04_S11;04/05/2023;16:19:46.800;-0.2061;0.6250;0.8120;-464.630;-300.522;-91.095;-13.136;103.627;-197.037;;;;
04_S11;04/05/2023;16:19:46.900;-0.1570;0.4814;0.9031;-848.465;-133.133;-20.142;-13.136;103.627;-197.037;;;;
04_S11;04/05/2023;16:19:47.000;-0.1633;0.3096;10.281;-1.153.259;235.291;120.926;23.353;116.763;-151.792;Inactive;0;24.04;
04_S11;04/05/2023;16:19:47.100;-0.2852;0.1143;0.9524;-1.298.752;742.264;160.751;75.896;137.196;-128.439;;;;
04_S11;04/05/2023;16:19:47.200;-0.3716;-0.0457;0.9258;-817.261;331.497;181.580;113.844;151.792;-119.682;;;;
04_S11;04/05/2023;16:19:47.300;-0.3621;-0.0886;0.9666;-394.058;-142.059;60.349;138.656;150.332;-118.222;;;;
04_S11;04/05/2023;16:19:47.400;-0.2773;-0.1274;10.020;-448.990;-372.467;127.029;138.656;150.332;-118.222;;;;
04_S11;04/05/2023;16:19:47.500;-0.2373;-0.2710;0.9626;-668.259;-186.615;79.422;148.873;119.682;-81.734;;;;
04_S11;04/05/2023;16:19:47.600;-0.1890;-0.3630;0.9448;-607.300;-161.972;-176.468;204.335;110.925;-72.977;;;;
04_S11;04/05/2023;16:19:47.700;-0.1978;-0.4287;0.8438;-564.499;-82.016;-109.940;234.985;94.870;-56.922;;;;
04_S11;04/05/2023;16:19:47.800;-0.1311;-0.5662;0.8037;-833.740;-44.937;-63.324;286.069;90.491;-72.977;;;;
04_S11;04/05/2023;16:19:47.900;-0.1306;-0.7119;0.7249;-1.033.020;-172.272;-85.144;286.069;90.491;-72.977;;;;
04_S11;04/05/2023;16:19:48.000;-0.0466;-0.8425;0.5405;-1.313.782;-182.114;-241.318;366.344;91.951;-74.436;Inactive;0;24.03;
04_S11;04/05/2023;16:19:48.100;0.0076;-0.9482;0.4036;-1.096.268;-55.161;-369.186;433.482;56.922;-135.737;;;;
04_S11;04/05/2023;16:19:48.200;0.0234;-0.9753;0.2766;-807.648;-126.114;-102.615;486.025;45.246;-164.928;;;;
04_S11;04/05/2023;16:19:48.300;-0.0493;-0.9324;-0.0225;-1.373.596;62.561;280.075;522.514;61.301;-253.959;;;;
04_S11;04/05/2023;16:19:48.400;-0.0447;-0.9482;-0.2214;-1.181.641;-147.171;180.969;522.514;61.301;-253.959;;;;
04_S11;04/05/2023;16:19:48.500;-0.0510;-0.9360;-0.3010;-910.721;-25.711;153.656;532.731;68.598;-322.557;;;;
04_S11;04/05/2023;16:19:48.600;-0.1038;-0.7771;-0.5569;-1.337.433;239.792;350.952;513.757;90.491;-402.832;;;;
04_S11;04/05/2023;16:19:48.700;-0.0771;-0.6709;-0.6660;-729.904;462.189;88.806;493.323;87.572;-469.971;;;;
04_S11;04/05/2023;16:19:48.800;-0.0518;-0.6008;-0.7754;-825.958;333.939;126.419;456.835;97.789;-538.569;;;;
04_S11;04/05/2023;16:19:48.900;-0.0613;-0.4551;-0.8853;-876.083;237.198;477.829;456.835;97.789;-538.569;;;;
04_S11;04/05/2023;16:19:49.000;-0.0686;-0.3594;-0.8906;-516.891;194.321;597.305;404.291;118.222;-576.517;Inactive;0;24.04;
04_S11;04/05/2023;16:19:49.100;-0.0422;-0.3342;-0.8801;-300.293;313.568;430.984;347.370;113.844;-604.248;;;;
04_S11;04/05/2023;16:19:49.200;-0.0696;-0.2869;-0.9626;-307.617;29.068;373.077;331.315;109.465;-623.222;;;;
04_S11;04/05/2023;16:19:49.300;-0.1006;-0.0708;-0.9617;-1.360.092;-37.766;245.819;331.315;109.465;-623.222;;;;
04_S11;04/05/2023;16:19:49.400;-0.1104;0.0930;-0.9712;-766.983;-52.338;196.838;246.662;129.899;-649.494;;;;
04_S11;04/05/2023;16:19:49.500;-0.1475;0.1951;-0.9717;-734.558;-149.689;346.451;176.604;124.061;-649.494;;;;
04_S11;04/05/2023;16:19:49.600;-0.1426;0.3276;-0.8267;-1.604.843;-239.487;1.005.249;112.384;126.980;-611.546;;;;
04_S11;04/05/2023;16:19:49.700;0.0430;0.7446;-0.7395;-883.713;-106.277;1.197.205;-10.217;94.870;-547.326;;;;
04_S11;04/05/2023;16:19:49.800;-0.0266;0.7207;-0.7412;-108.109;42.343;-542.068;-10.217;94.870;-547.326;;;;
04_S11;04/05/2023;16:19:49.900;-0.1216;0.6943;-0.7034;-558.777;-112.457;-841.446;20.434;125.520;-548.786;;;;
04_S11;04/05/2023;16:19:50.000;-0.2083;0.7227;-0.6216;-323.715;-310.745;-216.446;24.812;167.847;-509.378;Inactive;0;24.09;
04_S11;04/05/2023;16:19:50.100;-0.2202;0.8096;-0.5681;-406.418;-25.024;403.671;10.217;141.575;-486.025;;;;
04_S11;04/05/2023;16:19:50.200;-0.1521;0.8843;-0.4504;-507.202;-298.767;42.648;-0.7298;147.413;-439.320;;;;
04_S11;04/05/2023;16:19:50.300;-0.2986;0.8806;-0.3809;-478.134;-572.662;-98.267;-0.7298;147.413;-439.320;;;;
04_S11;04/05/2023;16:19:50.400;-0.3047;0.9021;-0.2622;-310.669;-817.795;279.541;-20.434;145.954;-376.560;;;;
04_S11;04/05/2023;16:19:50.500;-0.2107;0.9509;-0.2681;-198.441;-335.464;312.195;-37.948;125.520;-332.774;;;;
04_S11;04/05/2023;16:19:50.600;-0.2820;0.9458;-0.2109;-451.126;33.798;66.071;-27.731;126.980;-299.205;;;;
04_S11;04/05/2023;16:19:50.700;-0.1843;0.9875;-0.0913;-567.245;-173.111;298.233;-54.003;112.384;-258.338;;;;
04_S11;04/05/2023;16:19:50.800;-0.1611;0.9985;0.0881;-672.150;-251.694;166.245;-54.003;112.384;-258.338;;;;
04_S11;04/05/2023;16:19:50.900;-0.1487;0.9683;0.1284;-546.036;13.962;173.492;-36.488;100.708;-226.228;;;;
04_S11;04/05/2023;16:19:51.000;-0.0972;0.9866;0.2288;-618.820;-56.534;365.524;-36.488;83.194;-194.118;Inactive;0;24.09;
04_S11;04/05/2023;16:19:51.100;0.0220;0.9231;0.4656;-1.489.182;-484.085;398.560;23.353;43.786;-110.925;;;;
04_S11;04/05/2023;16:19:51.200;0.0505;0.8809;0.6248;-948.181;-340.500;-188.980;86.113;27.731;-54.003;;;;
04_S11;04/05/2023;16:19:51.300;0.0100;0.7188;0.7661;-839.310;-95.215;-438.919;86.113;27.731;-54.003;;;;
04_S11;04/05/2023;16:19:51.400;-0.0388;0.5906;0.8569;-886.154;-104.065;-278.931;145.954;35.029;-35.029;;;;
04_S11;04/05/2023;16:19:51.500;-0.0332;0.4331;0.9729;-896.530;-0.3281;-122.681;223.309;30.650;-13.136;;;;
04_S11;04/05/2023;16:19:51.600;-0.0505;0.4336;0.9668;-416.946;60.272;-54.321;261.257;33.569;-30.650;;;;
04_S11;04/05/2023;16:19:51.700;-0.0759;0.4153;0.9700;-269.089;84.457;-252.914;284.610;36.488;-24.812;;;;
04_S11;04/05/2023;16:19:51.800;-0.1565;0.2612;0.9829;-570.602;380.859;-563.889;284.610;36.488;-24.812;;;;
04_S11;04/05/2023;16:19:51.900;-0.2290;0.1270;10.044;-529.251;281.830;-772.095;344.450;43.786;-58.381;;;;
04_S11;04/05/2023;16:19:52.000;-0.2544;0.0398;0.9854;-393.600;77.209;-462.494;382.398;37.948;-75.896;Inactive;0;24.1;
04_S11;04/05/2023;16:19:52.100;-0.2329;-0.0696;10.139;-547.714;-27.695;-433.655;417.427;14.595;-84.653;;;;
04_S11;04/05/2023;16:19:52.200;-0.2373;-0.2195;0.9851;-795.212;0.7477;-158.920;480.187;0.4379;-141.575;;;;
04_S11;04/05/2023;16:19:52.300;-0.2134;-0.3721;0.9521;-1.075.897;-56.992;-83.923;480.187;0.4379;-141.575;;;;
04_S11;04/05/2023;16:19:52.400;-0.2170;-0.5642;0.8394;-1.206.436;160.141;-233.231;523.973;-0.1460;-202.876;;;;
04_S11;04/05/2023;16:19:52.500;-0.2236;-0.6624;0.7173;-830.078;206.375;-144.577;551.705;-0.5838;-283.150;;;;
04_S11;04/05/2023;16:19:52.600;-0.2637;-0.7686;0.6001;-877.991;242.920;-77.057;575.057;-0.8757;-338.612;;;;
04_S11;04/05/2023;16:19:52.700;-0.2253;-0.8440;0.4661;-863.953;154.724;-98.648;556.083;-21.893;-424.725;;;;
04_S11;04/05/2023;16:19:52.800;-0.2417;-0.9172;0.3147;-934.906;155.029;-88.654;556.083;-21.893;-424.725;;;;
04_S11;04/05/2023;16:19:52.900;-0.2209;-0.9053;0.1672;-1.009.674;326.614;-38.376;553.164;-27.731;-483.106;;;;
04_S11;04/05/2023;16:19:53.000;-0.3315;-0.9426;-0.1523;-1.366.959;643.845;544.891;471.430;-33.569;-594.031;Inactive;0;24.11;
04_S11;04/05/2023;16:19:53.100;-0.3264;-0.9045;-0.2512;-562.439;376.816;64.621;448.078;-48.165;-626.141;;;;
04_S11;04/05/2023;16:19:53.200;-0.2817;-0.8257;-0.4050;-1.100.998;330.734;-45.700;448.078;-48.165;-626.141;;;;
04_S11;04/05/2023;16:19:53.300;-0.2668;-0.6787;-0.6838;-1.622.772;398.178;0.5264;380.939;-65.679;-675.765;;;;
04_S11;04/05/2023;16:19:53.400;-0.2261;-0.5107;-0.8081;-1.260.605;202.255;52.795;252.500;-94.870;-713.713;;;;
04_S11;04/05/2023;16:19:53.500;-0.2097;-0.3865;-0.8474;-713.654;117.493;43.488;202.876;-100.708;-713.713;;;;
04_S11;04/05/2023;16:19:53.600;-0.2190;-0.2817;-0.8887;-759.659;113.678;44.327;134.277;-116.763;-715.173;;;;
04_S11;04/05/2023;16:19:53.700;-0.1941;-0.1489;-0.9434;-659.332;139.389;155.411;134.277;-116.763;-715.173;;;;
04_S11;04/05/2023;16:19:53.800;-0.1731;-0.0730;-0.9368;-425.949;118.713;125.809;94.870;-132.818;-687.441;;;;
04_S11;04/05/2023;16:19:53.900;-0.1643;-0.0488;-0.9778;-261.002;131.378;-0.5264;64.220;-140.115;-685.982;;;;
04_S11;04/05/2023;16:19:54.000;-0.1758;-0.0205;-0.9668;-182.495;-50.964;-91.400;58.381;-137.196;-674.306;Inactive;0;24.11;
04_S11;04/05/2023;16:19:54.100;-0.1829;0.0684;-0.9521;-428.009;-55.695;-21.667;27.731;-132.818;-658.251;;;;
04_S11;04/05/2023;16:19:54.200;-0.2170;0.1538;-0.9312;-672.226;-165.710;-71.030;27.731;-132.818;-658.251;;;;
04_S11;04/05/2023;16:19:54.300;-0.2236;0.2769;-0.9138;-656.509;-0.9155;22.583;-11.676;-113.844;-633.439;;;;
04_S11;04/05/2023;16:19:54.400;-0.1863;0.3423;-0.9272;-380.249;201.874;52.414;-43.786;-128.439;-592.572;;;;
04_S11;04/05/2023;16:19:54.500;-0.1899;0.3848;-0.8904;-360.260;89.493;43.945;-58.381;-131.358;-577.976;;;;
04_S11;04/05/2023;16:19:54.600;-0.2192;0.4917;-0.8318;-527.344;-89.340;0.3281;-86.113;-138.656;-538.569;;;;
04_S11;04/05/2023;16:19:54.700;-0.2109;0.6033;-0.7878;-647.583;-214.767;15.945;-86.113;-138.656;-538.569;;;;
04_S11;04/05/2023;16:19:54.800;-0.2358;0.6807;-0.6975;-846.329;-200.882;0.9995;-105.087;-122.601;-496.242;;;;
04_S11;04/05/2023;16:19:54.900;-0.2507;0.7400;-0.6311;-466.843;0.6256;69.122;-129.899;-124.061;-442.239;;;;
04_S11;04/05/2023;16:19:55.000;-0.2454;0.7922;-0.5286;-627.365;14.725;244.141;-140.115;-137.196;-405.751;Inactive;0;24.11;
04_S11;04/05/2023;16:19:55.100;-0.1753;0.8855;-0.4026;-1.007.614;-0.5493;245.514;-124.061;-150.332;-319.638;;;;
04_S11;04/05/2023;16:19:55.200;-0.1677;0.9443;-0.2908;-646.362;-0.8163;103.073;-124.061;-150.332;-319.638;;;;
04_S11;04/05/2023;16:19:55.300;-0.2034;0.9634;-0.2366;-507.355;-263.519;-71.411;-137.196;-154.711;-297.745;;;;
04_S11;04/05/2023;16:19:55.400;-0.2278;0.9861;-0.0562;-710.526;-591.049;-137.939;-115.303;-156.170;-246.662;;;;
04_S11;04/05/2023;16:19:55.500;-0.2495;0.9778;0.0798;-583.191;-465.393;-88.272;-97.789;-150.332;-214.552;;;;
04_S11;04/05/2023;16:19:55.600;-0.2661;0.9722;0.1343;-385.742;-135.345;-20.370;-84.653;-160.549;-183.902;;;;
04_S11;04/05/2023;16:19:55.700;-0.2639;0.9751;0.2131;-356.750;-108.185;10.147;-84.653;-160.549;-183.902;;;;
04_S11;04/05/2023;16:19:55.800;-0.2346;0.9578;0.2734;-512.695;-48.218;67.825;-68.598;-164.928;-164.928;;;;
04_S11;04/05/2023;16:19:55.900;-0.2595;0.9253;0.3521;-666.351;-49.591;-14.038;-56.922;-179.523;-126.980;;;;
04_S11;04/05/2023;16:19:56.000;-0.2373;0.8772;0.4487;-353.622;281.143;-0.1373;-14.595;-151.792;-102.168;Inactive;0;24.12;
04_S11;04/05/2023;16:19:56.100;-0.2708;0.8560;0.4668;-340.347;372.772;30.441;0.0000;-137.196;-72.977;;;;
04_S11;04/05/2023;16:19:56.200;-0.3149;0.8193;0.5410;-648.651;319.595;-87.814;0.0000;-137.196;-72.977;;;;
04_S11;04/05/2023;16:19:56.300;-0.3921;0.7063;0.6238;-741.653;333.862;-137.024;46.705;-116.763;-46.705;;;;
04_S11;04/05/2023;16:19:56.400;-0.3818;0.6687;0.6812;-391.922;163.956;59.509;68.598;-97.789;-24.812;;;;
04_S11;04/05/2023;16:19:56.500;-0.4075;0.6157;0.7417;-939.178;277.405;-86.899;129.899;-83.194;-0.1460;;;;
04_S11;04/05/2023;16:19:56.600;-0.4595;0.5151;0.8003;-748.978;260.162;-37.003;175.144;-64.220;0.8757;;;;
04_S11;04/05/2023;16:19:56.700;-0.4661;0.3799;0.8230;-580.368;95.291;-38.223;175.144;-64.220;0.8757;;;;
04_S11;04/05/2023;16:19:56.800;-0.4551;0.3215;0.8484;-414.200;37.842;12.512;233.526;-58.381;0.8757;;;;
04_S11;04/05/2023;16:19:56.900;-0.4666;0.2625;0.8933;-540.848;-42.114;79.269;278.771;-59.841;0.7298;;;;
04_S11;04/05/2023;16:19:57.000;-0.4219;0.1433;0.9446;-820.923;-151.367;33.417;321.098;-75.896;-0.8757;Inactive;0;24.14;
04_S11;04/05/2023;16:19:57.100;-0.4224;0.0564;0.9109;-690.918;60.196;-608.368;321.098;-75.896;-0.8757;;;;
04_S11;04/05/2023;16:19:57.200;-0.3728;-0.2671;0.9417;-715.256;-153.275;-1.249.008;372.182;-71.517;-27.731;;;;
04_S11;04/05/2023;16:19:57.300;-0.3660;-0.3225;0.9111;-526.581;-84.305;-504.761;404.291;-150.332;-65.679;;;;
04_S11;04/05/2023;16:19:57.400;-0.3196;-0.3936;0.9465;-510.330;-124.817;-182.648;445.158;-162.008;-74.436;;;;
04_S11;04/05/2023;16:19:57.500;-0.3135;-0.4702;0.8779;-390.091;140.457;-295.944;464.132;-166.387;-87.572;;;;
04_S11;04/05/2023;16:19:57.600;-0.2795;-0.4897;0.8389;-199.661;109.634;-192.337;464.132;-166.387;-87.572;;;;
04_S11;04/05/2023;16:19:57.700;-0.3181;-0.6423;0.7527;-402.298;235.214;-373.840;461.213;-178.063;-96.329;;;;
04_S11;04/05/2023;16:19:57.800;-0.2429;-0.6934;0.6729;-746.689;316.162;-241.394;491.864;-188.280;-138.656;;;;
04_S11;04/05/2023;16:19:57.900;-0.2944;-0.7632;0.5876;-589.447;316.849;-164.795;502.080;-189.740;-166.387;;;;
04_S11;04/05/2023;16:19:58.000;-0.2932;-0.8032;0.5315;-278.244;187.683;-131.912;532.731;-191.199;-188.280;Inactive;0;24.16;
04_S11;04/05/2023;16:19:58.100;-0.3005;-0.8362;0.4705;-508.118;140.610;-98.114;532.731;-191.199;-188.280;;;;
04_S11;04/05/2023;16:19:58.200;-0.2703;-0.9065;0.3340;-605.545;176.086;-109.177;537.109;-186.821;-210.173;;;;
04_S11;04/05/2023;16:19:58.300;-0.2729;-0.9414;0.2393;-475.540;156.097;-110.474;551.705;-204.335;-256.878;;;;
04_S11;04/05/2023;16:19:58.400;-0.2625;-0.9395;0.1665;-644.455;190.277;-66.147;551.705;-189.740;-300.664;;;;
04_S11;04/05/2023;16:19:58.500;-0.2744;-0.9553;0.0750;-674.133;251.770;-35.019;561.921;-199.956;-348.829;;;;
04_S11;04/05/2023;16:19:58.600;-0.2471;-0.9492;-0.0852;-594.711;234.680;0.6561;561.921;-199.956;-348.829;;;;
04_S11;04/05/2023;16:19:58.700;-0.2551;-0.9363;-0.1599;-539.780;129.089;-41.428;540.028;-195.578;-391.156;;;;
04_S11;04/05/2023;16:19:58.800;-0.2444;-0.9016;-0.2402;-612.946;221.176;-28.839;544.407;-199.956;-418.887;;;;
04_S11;04/05/2023;16:19:58.900;-0.2246;-0.8464;-0.4209;-943.680;356.750;64.621;523.973;-199.956;-471.430;;;;
04_S11;04/05/2023;16:19:59.000;-0.1851;-0.7649;-0.5549;-792.084;484.009;134.506;509.378;-217.471;-523.973;Inactive;0;24.16;
04_S11;04/05/2023;16:19:59.100;-0.1665;-0.6990;-0.6628;-403.137;354.919;181.885;509.378;-217.471;-523.973;;;;
04_S11;04/05/2023;16:19:59.200;-0.1946;-0.6953;-0.6445;-142.899;160.141;200.272;512.297;-211.633;-515.216;;;;
04_S11;04/05/2023;16:19:59.300;-0.1619;-0.6179;-0.6357;-480.423;189.514;284.424;504.999;-207.254;-537.109;;;;
04_S11;04/05/2023;16:19:59.400;-0.1868;-0.3452;-0.9004;-1.801.071;604.858;517.502;430.563;-205.795;-626.141;;;;
04_S11;04/05/2023;16:19:59.500;-0.1338;-0.1885;-0.9797;-838.547;446.548;364.532;398.453;-226.228;-646.574;;;;
04_S11;04/05/2023;16:19:59.600;-0.0881;-0.1221;-0.9812;-408.325;299.759;229.645;398.453;-226.228;-646.574;;;;
04_S11;04/05/2023;16:19:59.700;-0.0461;-0.0920;-0.9746;-251.923;293.350;21.210;379.479;-230.607;-650.953;;;;
04_S11;04/05/2023;16:19:59.800;0.0442;0.0002;-0.9797;-437.698;525.131;123.444;356.127;-245.202;-648.034;;;;
04_S11;04/05/2023;16:19:59.900;0.1890;0.1680;-0.9565;-941.238;684.357;326.385;328.396;-284.610;-629.060;;;;
04_S11;04/05/2023;16:20:00.000;0.2878;0.3416;-0.8667;-1.432.343;522.079;401.001;251.040;-324.017;-639.277;Inactive;0;24.2;
04_S11;04/05/2023;16:20:00.100;0.3469;0.4431;-0.8132;-682.526;234.451;364.761;251.040;-324.017;-639.277;;;;
04_S11;04/05/2023;16:20:00.200;0.3723;0.4761;-0.7832;-406.036;145.950;404.205;227.688;-318.179;-636.358;;;;
04_S11;04/05/2023;16:20:00.300;0.5310;0.4685;-0.7385;-235.825;201.721;665.665;236.445;-332.774;-645.115;;;;
04_S11;04/05/2023;16:20:00.400;0.5388;0.4202;-0.7158;-266.953;266.495;880.890;277.312;-332.774;-618.843;;;;
04_S11;04/05/2023;16:20:00.500;0.6001;0.3857;-0.6658;-334.244;297.699;718.689;286.069;-332.774;-615.924;;;;
04_S11;04/05/2023;16:20:00.600;0.6833;0.2830;-0.6228;-100.555;409.622;739.212;286.069;-332.774;-615.924;;;;
04_S11;04/05/2023;16:20:00.700;0.8069;0.2568;-0.5229;-88.120;543.900;710.144;325.477;-342.991;-582.355;;;;
04_S11;04/05/2023;16:20:00.800;0.8826;0.1729;-0.4414;-16.251;521.851;441.360;356.127;-359.046;-566.300;;;;
04_S11;04/05/2023;16:20:00.900;0.9282;0.1179;-0.3655;-20.981;537.109;229.492;364.884;-367.803;-537.109;;;;
04_S11;04/05/2023;16:20:01.000;0.9561;0.1316;-0.3347;-72.861;456.543;158.310;364.884;-367.803;-537.109;Inactive;0;24.2;
04_S11;04/05/2023;16:20:01.100;0.9961;0.1099;-0.2710;31.509;297.089;25.635;386.777;-378.020;-512.297;;;;
04_S11;04/05/2023;16:20:01.200;0.9731;0.0984;-0.2314;39.825;282.059;82.703;386.777;-372.182;-477.268;;;;
04_S11;04/05/2023;16:20:01.300;0.9751;0.0498;-0.1523;145.187;427.628;12.741;382.398;-391.156;-461.213;;;;
04_S11;04/05/2023;16:20:01.400;10.293;0.1018;-0.1355;0.4959;275.116;14.114;388.237;-394.075;-434.942;;;;
04_S11;04/05/2023;16:20:01.500;0.9897;0.1008;-0.0461;-51.270;293.884;-173.721;388.237;-394.075;-434.942;;;;
04_S11;04/05/2023;16:20:01.600;10.400;0.1243;-0.0596;16.556;21.973;75.455;364.884;-411.589;-437.861;;;;
04_S11;04/05/2023;16:20:01.700;10.105;0.1050;-0.0708;-10.071;41.504;127.335;388.237;-399.913;-417.427;;;;
04_S11;04/05/2023;16:20:01.800;0.9939;0.1025;-0.0378;-116.959;105.133;-58.060;369.263;-413.049;-427.644;;;;
04_S11;04/05/2023;16:20:01.900;0.9915;0.0657;-0.0122;-90.103;79.727;-105.972;380.939;-410.130;-427.644;;;;
04_S11;04/05/2023;16:20:02.000;0.9839;0.1194;0.0071;-47.913;186.615;-23.651;380.939;-410.130;-427.644;Inactive;0;24.21;
04_S11;04/05/2023;16:20:02.100;0.9839;0.1399;-0.0093;-20.447;0.2747;-212.173;363.424;-413.049;-410.130;;;;
04_S11;04/05/2023;16:20:02.200;10.208;0.1902;-0.0374;-30.975;-101.852;-71.182;361.965;-402.832;-414.508;;;;
04_S11;04/05/2023;16:20:02.300;0.9802;0.1572;0.0137;-125.732;64.926;-19.531;344.450;-417.427;-429.104;;;;
04_S11;04/05/2023;16:20:02.400;10.073;0.1675;-0.0210;-126.266;66.376;26.093;354.667;-415.968;-415.968;;;;
04_S11;04/05/2023;16:20:02.500;0.9922;0.1838;0.0425;-12.512;300.751;-14.572;354.667;-415.968;-415.968;;;;
04_S11;04/05/2023;16:20:02.600;0.9858;0.1726;0.0349;-82.932;-47.913;-98.114;353.208;-420.346;-396.994;;;;
04_S11;04/05/2023;16:20:02.700;10.205;0.2134;0.0217;100.632;-65.155;76.294;353.208;-408.670;-414.508;;;;
04_S11;04/05/2023;16:20:02.800;0.9910;0.1877;0.0398;-0.3128;28.305;-0.7935;350.289;-423.265;-408.670;;;;
04_S11;04/05/2023;16:20:02.900;0.9888;0.1597;0.0183;-161.057;-11.673;101.624;360.505;-430.563;-413.049;;;;
04_S11;04/05/2023;16:20:03.000;0.9995;0.1582;0.0164;-295.563;-56.915;12.512;360.505;-430.563;-413.049;Inactive;0;24.26;
04_S11;04/05/2023;16:20:03.100;0.9988;0.1636;0.0144;-279.083;-17.471;0.5875;353.208;-423.265;-432.023;;;;
04_S11;04/05/2023;16:20:03.200;10.073;0.1521;0.0242;-301.971;0.9766;54.016;340.072;-418.887;-433.482;;;;
04_S11;04/05/2023;16:20:03.300;0.9956;0.1472;0.0396;-610.275;97.351;121.918;340.072;-418.887;-459.754;;;;
04_S11;04/05/2023;16:20:03.400;10.061;0.1230;0.0776;-424.805;112.534;92.926;345.910;-410.130;-453.916;;;;
04_S11;04/05/2023;16:20:03.500;10.190;0.0942;0.1099;-521.545;110.168;68.283;345.910;-410.130;-453.916;;;;
04_S11;04/05/2023;16:20:03.600;0.9961;0.0918;0.1306;-909.271;122.757;98.572;328.396;-415.968;-474.349;;;;
04_S11;04/05/2023;16:20:03.700;0.9905;0.0562;0.1470;-980.606;102.692;37.079;307.962;-421.806;-477.268;;;;
04_S11;04/05/2023;16:20:03.800;0.9893;0.0273;0.1841;-914.917;128.860;-10.681;281.690;-415.968;-488.945;;;;
04_S11;04/05/2023;16:20:03.900;0.9995;0.0178;0.1841;-596.771;59.280;-24.414;249.581;-427.644;-486.025;;;;
04_S11;04/05/2023;16:20:04.000;0.9902;0.0105;0.1755;-529.099;28.152;-0.8545;249.581;-427.644;-486.025;Inactive;0;24.23;
04_S11;04/05/2023;16:20:04.100;10.032;-0.0022;0.1997;-664.444;29.144;-0.4959;242.283;-423.265;-493.323;;;;
04_S11;04/05/2023;16:20:04.200;0.9963;-0.0337;0.2014;-701.141;100.479;33.722;233.526;-423.265;-490.404;;;;
04_S11;04/05/2023;16:20:04.300;0.9924;-0.0686;0.2029;-804.062;108.261;84.076;192.659;-420.346;-490.404;;;;
04_S11;04/05/2023;16:20:04.400;0.9829;-0.0996;0.2151;-794.373;100.174;84.457;188.280;-433.482;-474.349;;;;
04_S11;04/05/2023;16:20:04.500;0.9885;-0.1426;0.1980;-751.114;51.804;92.087;188.280;-433.482;-474.349;;;;
04_S11;04/05/2023;16:20:04.600;0.9851;-0.1750;0.1870;-651.703;86.212;71.259;185.361;-430.563;-459.754;;;;
04_S11;04/05/2023;16:20:04.700;0.9800;-0.1992;0.1565;-832.596;95.520;69.733;147.413;-424.725;-436.401;;;;
04_S11;04/05/2023;16:20:04.800;0.9749;-0.2119;0.1394;-674.744;54.703;0.0916;144.494;-436.401;-427.644;;;;
04_S11;04/05/2023;16:20:04.900;0.9624;-0.1653;0.1135;-213.318;-72.784;-166.168;144.494;-436.401;-427.644;;;;
04_S11;04/05/2023;16:20:05.000;0.9929;-0.1594;0.1013;-277.176;-141.678;-225.983;132.818;-433.482;-442.239;Inactive;0;24.25;
04_S11;04/05/2023;16:20:05.100;0.9849;-0.1345;0.0889;-357.590;-87.128;-197.601;106.546;-418.887;-424.725;;;;
04_S11;04/05/2023;16:20:05.200;10.085;-0.1008;0.0188;-240.631;-62.180;-123.596;81.734;-405.751;-434.942;;;;
04_S11;04/05/2023;16:20:05.300;0.9973;-0.1038;0.0374;-187.149;-56.458;-102.921;81.734;-402.832;-446.618;;;;
04_S11;04/05/2023;16:20:05.400;10.059;-0.0820;0.0464;-96.588;68.130;-0.7782;81.734;-402.832;-446.618;;;;
04_S11;04/05/2023;16:20:05.500;10.176;-0.0830;0.0405;-55.008;25.177;-17.242;84.653;-408.670;-440.780;;;;
04_S11;04/05/2023;16:20:05.600;0.9985;-0.0710;0.0225;0.0534;11.597;19.150;77.355;-413.049;-430.563;;;;
04_S11;04/05/2023;16:20:05.700;10.081;-0.0862;0.0291;-14.496;16.479;33.875;67.139;-417.427;-432.023;;;;
04_S11;04/05/2023;16:20:05.800;10.059;-0.0767;0.0281;-46.158;29.297;16.556;84.653;-426.185;-434.942;;;;
04_S11;04/05/2023;16:20:05.900;10.032;-0.0806;0.0332;0.8469;42.114;13.962;84.653;-426.185;-434.942;;;;
04_S11;04/05/2023;16:20:06.000;10.149;-0.0759;0.0403;53.558;64.392;-47.302;71.517;-404.291;-442.239;Inactive;0;24.39;
04_S11;04/05/2023;16:20:06.100;10.071;-0.0503;0.0610;79.956;148.697;-115.662;83.194;-415.968;-424.725;;;;
04_S11;04/05/2023;16:20:06.200;10.002;-0.0286;0.0945;14.343;135.880;-154.495;64.220;-408.670;-426.185;;;;
04_S11;04/05/2023;16:20:06.300;10.000;-0.0105;0.0820;-116.806;41.962;-54.703;51.084;-407.211;-427.644;;;;
04_S11;04/05/2023;16:20:06.400;10.081;-0.0244;0.0752;-126.343;17.395;-0.6943;51.084;-407.211;-427.644;;;;
04_S11;04/05/2023;16:20:06.500;0.9966;0.0061;0.1084;-231.552;119.171;0.8011;64.220;-402.832;-417.427;;;;
04_S11;04/05/2023;16:20:06.600;10.088;-0.0388;0.1519;-171.814;282.593;-116.577;43.786;-405.751;-394.075;;;;
04_S11;04/05/2023;16:20:06.700;10.244;0.0266;0.1997;-152.283;266.876;49.057;43.786;-414.508;-373.641;;;;
04_S11;04/05/2023;16:20:06.800;0.9309;-0.0674;0.2830;-241.928;707.474;-135.956;39.407;-404.291;-313.800;;;;
04_S11;04/05/2023;16:20:06.900;0.9878;0.0461;0.4333;107.727;596.695;80.566;39.407;-404.291;-313.800;;;;
04_S11;04/05/2023;16:20:07.000;0.9099;0.0151;0.4893;168.152;654.755;-13.428;42.327;-407.211;-287.529;Inactive;0;24.49;
04_S11;04/05/2023;16:20:07.100;0.8398;0.0154;0.6082;152.969;617.371;124.207;45.246;-395.534;-246.662;;;;
04_S11;04/05/2023;16:20:07.200;0.7651;0.0210;0.6809;342.560;726.395;151.596;42.327;-386.777;-214.552;;;;
04_S11;04/05/2023;16:20:07.300;0.6860;0.0327;0.7715;112.991;710.831;115.433;43.786;-361.965;-183.902;;;;
04_S11;04/05/2023;16:20:07.400;0.6040;0.0342;0.8308;45.319;485.458;-21.133;43.786;-361.965;-183.902;;;;
04_S11;04/05/2023;16:20:07.500;0.5540;0.0508;0.8689;46.539;393.372;-47.150;42.327;-345.910;-156.170;;;;
04_S11;04/05/2023;16:20:07.600;0.5203;0.0771;0.8882;81.100;259.781;-87.204;29.191;-329.855;-148.873;;;;
04_S11;04/05/2023;16:20:07.700;0.4792;0.1309;0.8965;216.446;317.459;-148.926;26.272;-312.341;-140.115;;;;
04_S11;04/05/2023;16:20:07.800;0.4275;0.1643;0.9248;81.406;335.617;-164.490;13.136;-296.286;-135.737;;;;
04_S11;04/05/2023;16:20:07.900;0.4023;0.1658;0.9541;-59.433;173.035;-139.923;13.136;-296.286;-135.737;;;;
04_S11;04/05/2023;16:20:08.000;0.4065;0.1436;0.9578;-40.359;72.403;-50.659;14.595;-283.150;-137.196;Inactive;0;24.53;
04_S11;04/05/2023;16:20:08.100;0.3843;0.1616;0.9463;47.913;78.430;-77.438;0.4379;-272.933;-121.141;;;;
04_S11;04/05/2023;16:20:08.200;0.3645;0.1855;0.9434;47.073;128.250;-28.534;-0.7298;-267.095;-121.141;;;;
04_S11;04/05/2023;16:20:08.300;0.3503;0.1716;0.9670;-0.7477;154.266;-22.202;0.2919;-265.636;-119.682;;;;
04_S11;04/05/2023;16:20:08.400;0.3193;0.1819;0.9858;31.433;119.095;-22.964;0.2919;-265.636;-119.682;;;;
04_S11;04/05/2023;16:20:08.500;0.3181;0.2102;0.9724;72.021;61.646;-15.259;-0.5838;-248.121;-116.763;;;;
04_S11;04/05/2023;16:20:08.600;0.3091;0.2578;10.010;41.656;118.027;-50.278;-14.595;-253.959;-134.277;;;;
04_S11;04/05/2023;16:20:08.700;0.2424;0.2017;10.249;65.613;459.900;-155.258;-30.650;-217.471;-118.222;;;;
04_S11;04/05/2023;16:20:08.800;0.1357;0.2559;0.9856;60.349;637.131;-54.626;-30.650;-217.471;-118.222;;;;
04_S11;04/05/2023;16:20:08.900;0.0664;0.2693;0.9971;-34.561;385.590;-122.452;-23.353;-189.740;-108.006;;;;
04_S11;04/05/2023;16:20:09.000;-0.0168;0.2371;10.337;-0.1907;419.006;-128.632;-32.110;-175.144;-90.491;Inactive;0;24.54;
04_S11;04/05/2023;16:20:09.100;-0.1187;0.2490;0.9858;-0.6409;609.283;-124.893;-21.893;-132.818;-97.789;;;;
04_S11;04/05/2023;16:20:09.200;-0.2095;0.2495;0.9980;42.648;555.878;-204.544;-36.488;-91.951;-91.951;;;;
04_S11;04/05/2023;16:20:09.300;-0.3274;0.2471;0.9529;-0.1526;857.773;-108.261;-36.488;-91.951;-91.951;;;;
04_S11;04/05/2023;16:20:09.400;-0.4863;0.2419;0.8682;37.842;1.182.938;-180.283;-43.786;-32.110;-102.168;;;;
04_S11;04/05/2023;16:20:09.500;-0.6689;0.2268;0.6475;170.975;1.786.346;-192.795;-39.407;54.003;-144.494;;;;
04_S11;04/05/2023;16:20:09.600;-0.9192;0.1958;0.2803;229.111;2.184.372;-282.745;-29.191;134.277;-259.797;;;;
04_S11;04/05/2023;16:20:09.700;-0.9724;0.2275;0.0779;135.269;1.237.793;105.515;-37.948;160.549;-326.936;;;;
04_S11;04/05/2023;16:20:09.800;-0.9724;0.2610;-0.0049;-29.221;397.644;60.425;-37.948;160.549;-326.936;;;;
04_S11;04/05/2023;16:20:09.900;-0.9875;0.2148;0.0054;-78.506;-0.4807;-91.248;-33.569;150.332;-331.315;;;;
04_S11;04/05/2023;16:20:10.000;-0.9944;0.1816;0.1047;-0.0992;-518.799;-224.075;-20.434;140.115;-332.774;Inactive;0;24.57;
04_S11;04/05/2023;16:20:10.100;-0.9724;0.1743;0.1497;160.065;-635.223;-411.148;0.0000;175.144;-288.988;;;;
04_S11;04/05/2023;16:20:10.200;-0.8374;0.1235;0.4543;107.880;-1.674.118;-126.572;-0.4379;144.494;-202.876;;;;
04_S11;04/05/2023;16:20:10.300;-0.7307;0.1196;0.7659;89.035;-1.413.345;-44.022;-0.4379;144.494;-202.876;;;;
04_S11;04/05/2023;16:20:10.400;-0.6477;0.0920;0.6716;32.425;-197.067;-26.855;-10.217;97.789;-159.089;;;;
04_S11;04/05/2023;16:20:10.500;-0.4719;0.0852;0.8269;-26.932;-1.561.203;-66.452;-0.8757;78.815;-128.439;;;;
04_S11;04/05/2023;16:20:10.600;-0.0359;0.1555;10.527;258.408;-2.363.052;-138.702;-0.4379;-59.841;-68.598;;;;
04_S11;04/05/2023;16:20:10.700;0.0654;0.1902;10.149;227.280;-1.051.941;-0.2899;-18.974;-109.465;-74.436;;;;
04_S11;04/05/2023;16:20:10.800;0.2451;0.2122;0.8411;306.320;-1.160.660;-85.297;-18.974;-109.465;-74.436;;;;
04_S11;04/05/2023;16:20:10.900;0.5815;0.2605;0.9226;402.603;-1.912.918;-0.4425;-51.084;-176.604;-135.737;;;;
04_S11;04/05/2023;16:20:11.000;0.7385;0.2778;0.7500;-218.353;-1.174.011;281.906;-59.841;-252.500;-170.766;Inactive;0;24.55;
04_S11;04/05/2023;16:20:11.100;0.8020;0.1316;0.5933;-568.237;-819.168;338.135;-17.514;-294.826;-186.821;;;;
04_S11;04/05/2023;16:20:11.200;0.9807;0.0708;0.3965;-631.104;-1.761.398;343.170;13.136;-375.101;-255.419;;;;
04_S11;04/05/2023;16:20:11.300;10.125;-0.0503;0.1787;-372.238;-929.184;214.920;13.136;-375.101;-255.419;;;;
04_S11;04/05/2023;16:20:11.400;0.9524;0.0122;-0.0168;-364.456;-913.391;65.536;32.110;-391.156;-280.231;;;;
04_S11;04/05/2023;16:20:11.500;10.083;-0.0396;-0.2124;-157.547;-1.462.784;66.299;36.488;-404.291;-369.263;;;;
04_S11;04/05/2023;16:20:11.600;0.8643;-0.0459;-0.5276;-299.606;-1.338.501;143.738;35.029;-391.156;-449.537;;;;
04_S11;04/05/2023;16:20:11.700;0.6528;0.1548;-0.6863;-520.020;-2.108.688;-116.348;11.676;-312.341;-551.705;;;;
04_S11;04/05/2023;16:20:11.800;0.4846;0.0771;-0.8738;-253.296;-1.004.257;-616.989;11.676;-312.341;-551.705;;;;
04_S11;04/05/2023;16:20:11.900;0.3586;0.0720;-0.9141;356.979;-860.291;57.983;0.1460;-270.014;-570.679;;;;
04_S11;04/05/2023;16:20:12.000;0.2178;0.0181;-0.9478;386.505;-1.140.518;286.484;27.731;-217.471;-626.141;Inactive;0;24.54;
04_S11;04/05/2023;16:20:12.100;0.0247;0.0701;-0.9910;-731.735;-735.931;99.792;13.136;-176.604;-634.898;;;;
04_S11;04/05/2023;16:20:12.200;-0.1282;0.2029;-0.8892;-695.953;-1.113.739;-196.533;-29.191;-108.006;-604.248;;;;
04_S11;04/05/2023;16:20:12.300;-0.3406;0.2375;-0.9448;-144.653;-898.895;-26.016;-29.191;-108.006;-604.248;;;;
04_S11;04/05/2023;16:20:12.400;-0.5696;0.2400;-0.6875;-184.250;-2.252.121;-228.043;-49.624;-35.029;-598.410;;;;
04_S11;04/05/2023;16:20:12.500;-0.8330;0.1677;-0.4409;234.222;-1.593.704;-591.125;-13.136;106.546;-544.407;;;;
04_S11;04/05/2023;16:20:12.600;-0.8865;0.1133;-0.3340;424.500;-848.083;-309.601;29.191;154.711;-510.838;;;;
04_S11;04/05/2023;16:20:12.700;-0.9368;-0.0642;-0.2322;744.019;-566.254;-521.698;29.191;154.711;-510.838;;;;
04_S11;04/05/2023;16:20:12.800;-0.9651;-0.1931;-0.2266;1.184.845;-428.543;-541.763;78.815;210.173;-504.999;;;;
04_S11;04/05/2023;16:20:12.900;-0.9224;-0.2075;0.0017;1.127.472;-462.723;-456.467;143.035;218.930;-502.080;;;;
04_S11;04/05/2023;16:20:13.000;-0.9683;-0.3960;0.0762;1.507.339;-714.645;-487.823;229.147;237.904;-477.268;Inactive;0;24.55;
04_S11;04/05/2023;16:20:13.100;-0.7117;-0.0781;0.4839;2.499.924;-1.099.930;-281.067;277.312;236.445;-350.289;;;;
04_S11;04/05/2023;16:20:13.200;-0.7070;-0.0278;0.6311;1.324.310;-609.589;-117.264;277.312;236.445;-350.289;;;;
04_S11;04/05/2023;16:20:13.300;-0.6658;0.0159;0.8921;1.272.964;-686.264;-782.318;283.150;253.959;-286.069;;;;
04_S11;04/05/2023;16:20:13.400;-0.4963;0.1328;0.8674;1.978.836;-1.064.224;-1.356.812;332.774;216.011;-207.254;;;;
04_S11;04/05/2023;16:20:13.500;-0.5020;0.1636;0.8772;764.694;-828.552;-297.928;312.341;148.873;-96.329;;;;
04_S11;04/05/2023;16:20:13.600;-0.2842;0.1416;11.208;-497.818;-753.098;-532.303;370.722;93.410;-72.977;;;;
04_S11;04/05/2023;16:20:13.700;-0.2087;0.1360;10.273;123.672;-292.206;272.293;370.722;93.410;-72.977;;;;
04_S11;04/05/2023;16:20:13.800;-0.2690;0.1477;0.9683;511.703;97.351;233.765;341.531;93.410;-55.462;;;;
04_S11;04/05/2023;16:20:13.900;-0.2571;0.2727;0.9314;533.371;-160.980;-104.904;303.583;110.925;-58.381;;;;
04_S11;04/05/2023;16:20:14.000;0.0435;0.3274;0.9688;307.388;-997.086;-126.114;275.852;51.084;-24.812;Inactive;0;24.56;
04_S11;04/05/2023;16:20:14.100;0.2932;0.3091;0.9431;88.730;-1.649.780;869.827;268.555;-70.058;17.514;;;;
04_S11;04/05/2023;16:20:14.200;0.5974;0.4128;0.7012;1.308.289;-1.724.167;1.576.233;268.555;-70.058;17.514;;;;
04_S11;04/05/2023;16:20:14.300;0.8025;0.4041;0.2966;1.467.972;-1.726.379;1.323.700;159.089;-197.037;-0.4379;;;;
04_S11;04/05/2023;16:20:14.400;10.146;0.5398;-0.0337;1.554.718;-2.429.047;387.192;86.113;-331.315;-112.384;;;;
04_S11;04/05/2023;16:20:14.500;0.8755;0.4333;-0.3247;141.220;-1.862.335;-468.292;37.948;-399.913;-262.716;;;;
04_S11;04/05/2023;16:20:14.600;0.6030;0.5784;-0.6277;-166.473;-1.902.466;-487.442;0.7298;-375.101;-389.696;;;;
04_S11;04/05/2023;16:20:14.700;0.3381;0.5474;-0.7773;-207.291;-1.981.125;-409.012;0.7298;-375.101;-389.696;;;;
04_S11;04/05/2023;16:20:14.800;-0.0002;0.4788;-0.8579;373.383;-2.060.394;-264.816;-21.893;-322.557;-500.621;;;;
04_S11;04/05/2023;16:20:14.900;-0.2310;0.3701;-0.8757;642.319;-1.596.069;-27.084;10.217;-232.066;-620.303;;;;
04_S11;04/05/2023;16:20:15.000;-0.3945;0.4570;-0.7849;327.759;-1.447.144;274.811;40.867;-134.277;-665.548;Inactive;0;24.57;
04_S11;04/05/2023;16:20:15.100;-0.5618;0.3672;-0.7456;453.720;-858.765;-161.743;71.517;-74.436;-681.603;;;;
04_S11;04/05/2023;16:20:15.200;-0.7161;0.1985;-0.6855;908.127;-989.685;-463.181;71.517;-74.436;-681.603;;;;
04_S11;04/05/2023;16:20:15.300;-0.7849;-0.1365;-0.5750;1.754.837;-1.292.191;-776.901;175.144;11.676;-683.063;;;;
04_S11;04/05/2023;16:20:15.400;-0.8557;-0.3020;-0.0706;1.697.388;-1.953.659;-840.378;335.693;122.601;-604.248;;;;
04_S11;04/05/2023;16:20:15.500;-0.7915;-0.5247;0.2642;676.117;-1.352.463;-907.593;434.942;154.711;-504.999;;;;
04_S11;04/05/2023;16:20:15.600;-0.6653;-0.5771;0.4438;641.632;-1.375.580;-674.210;481.647;145.954;-382.398;;;;
04_S11;04/05/2023;16:20:15.700;-0.4844;-0.5757;0.6404;641.022;-1.596.375;-453.720;481.647;145.954;-382.398;;;;
04_S11;04/05/2023;16:20:15.800;-0.3408;-0.5144;0.6965;25.406;-1.156.693;-55.771;491.864;121.141;-272.933;;;;
04_S11;04/05/2023;16:20:15.900;-0.2185;-0.5618;0.8079;22.430;-807.343;55.847;499.161;105.087;-236.445;;;;
04_S11;04/05/2023;16:20:16.000;-0.1204;-0.4758;0.9429;639.877;-787.277;420.227;446.618;96.329;-169.306;Inactive;0;24.52;
04_S11;04/05/2023;16:20:16.100;-0.1091;-0.4004;0.9524;239.792;-466.537;416.870;436.401;109.465;-121.141;;;;
04_S11;04/05/2023;16:20:16.200;-0.0652;-0.3889;0.9395;114.288;-452.728;-18.921;436.401;109.465;-121.141;;;;
04_S11;04/05/2023;16:20:16.300;0.0137;-0.3821;0.9194;600.357;-446.777;-122.910;430.563;74.436;-112.384;;;;
04_S11;04/05/2023;16:20:16.400;0.1965;-0.2061;0.9978;836.258;-701.828;368.423;369.263;45.246;-51.084;;;;
04_S11;04/05/2023;16:20:16.500;0.3047;-0.0637;0.9976;509.262;-1.014.557;839.767;309.422;17.514;0.2919;;;;
04_S11;04/05/2023;16:20:16.600;0.5586;-0.0432;0.8745;422.440;-1.597.061;362.091;271.474;-108.006;26.272;;;;
04_S11;04/05/2023;16:20:16.700;0.7766;0.0049;0.6633;447.464;-1.825.790;114.136;271.474;-108.006;26.272;;;;
04_S11;04/05/2023;16:20:16.800;0.9631;0.0457;0.3391;386.353;-1.954.956;-41.428;229.147;-258.338;-21.893;;;;
04_S11;04/05/2023;16:20:16.900;10.149;0.0234;0.1260;276.871;-1.484.146;267.868;223.309;-363.424;-109.465;;;;
04_S11;04/05/2023;16:20:17.000;0.9810;-0.0964;-0.0364;48.141;-433.502;616.150;248.121;-408.670;-140.115;Inactive;0;24.56;
04_S11;04/05/2023;16:20:17.100;0.9705;-0.1978;-0.1125;47.989;-615.311;622.330;248.121;-408.670;-140.115;;;;
04_S11;04/05/2023;16:20:17.200;0.9150;-0.2808;-0.3188;-396.576;-1.142.807;548.248;284.610;-413.049;-185.361;;;;
04_S11;04/05/2023;16:20:17.300;0.7292;-0.2705;-0.5564;-1.345.978;-1.652.527;1.122.665;359.046;-429.104;-309.422;;;;
04_S11;04/05/2023;16:20:17.400;0.4971;-0.3098;-0.7036;-597.992;-876.083;838.242;426.185;-370.722;-449.537;;;;
04_S11;04/05/2023;16:20:17.500;0.5278;-0.3079;-0.8613;-242.538;-446.396;665.283;446.618;-338.612;-481.647;;;;
04_S11;04/05/2023;16:20:17.600;0.4062;-0.2981;-0.8230;-361.252;-215.378;37.308;446.618;-338.612;-481.647;;;;
04_S11;04/05/2023;16:20:17.700;0.3494;-0.1887;-0.9072;-674.133;-414.581;-336.533;442.239;-325.477;-523.973;;;;
04_S11;04/05/2023;16:20:17.800;0.2939;-0.0789;-0.9553;-469.131;-549.469;-376.892;402.832;-324.017;-566.300;;;;
04_S11;04/05/2023;16:20:17.900;0.1743;-0.0396;-0.9246;-217.743;-327.759;-405.655;341.531;-309.422;-618.843;;;;
04_S11;04/05/2023;16:20:18.000;0.1494;-0.0054;-0.9680;-95.901;-351.334;266.495;357.586;-287.529;-623.222;Inactive;0;24.53;
04_S11;04/05/2023;16:20:18.100;0.0515;-0.0068;-0.9861;-378.571;-434.952;-118.256;357.586;-287.529;-623.222;;;;
04_S11;04/05/2023;16:20:18.200;0.0405;0.1206;-0.9705;-355.759;-121.994;-131.531;335.693;-259.797;-653.872;;;;
04_S11;04/05/2023;16:20:18.300;-0.0334;0.0833;-10.205;-638.504;-452.271;492.859;309.422;-262.716;-668.467;;;;
04_S11;04/05/2023;16:20:18.400;0.1614;0.5754;-0.6245;-2.221.146;-1.404.724;2.499.924;218.930;-140.115;-721.011;;;;
04_S11;04/05/2023;16:20:18.500;0.1143;0.7791;-0.6428;-1.413.269;-283.051;1.365.280;118.222;-126.980;-707.875;;;;
04_S11;04/05/2023;16:20:18.600;-0.0093;0.9209;-0.5129;-1.105.804;-157.623;-151.520;118.222;-126.980;-707.875;;;;
04_S11;04/05/2023;16:20:18.700;-0.0637;0.9614;-0.2329;-1.118.622;-456.543;-329.666;24.812;-97.789;-672.846;;;;
04_S11;04/05/2023;16:20:18.800;-0.0662;0.9858;-0.0149;-1.618.118;-203.094;-195.312;-43.786;-58.381;-595.491;;;;
04_S11;04/05/2023;16:20:18.900;-0.1211;0.9187;0.3027;-1.766.739;-540.314;-695.801;-121.141;-18.974;-491.864;;;;
04_S11;04/05/2023;16:20:19.000;-0.1541;0.7991;0.5649;-1.336.746;-781.250;-498.276;-115.303;33.569;-345.910;Inactive;0;24.53;
04_S11;04/05/2023;16:20:19.100;-0.1289;0.7673;0.6223;-887.375;-1.195.755;-373.001;-115.303;33.569;-345.910;;;;
04_S11;04/05/2023;16:20:19.200;-0.0093;0.6484;0.7727;-657.196;-1.372.910;-294.724;-99.248;40.867;-245.202;;;;
04_S11;04/05/2023;16:20:19.300;0.1846;0.5940;0.8660;-499.039;-1.250.381;-135.651;-71.517;16.055;-179.523;;;;
04_S11;04/05/2023;16:20:19.400;0.3940;0.4531;0.8894;-833.969;-926.971;280.228;-46.705;-37.948;-113.844;;;;
04_S11;04/05/2023;16:20:19.500;0.5090;0.2366;0.8745;-1.246.490;-891.342;654.984;33.569;-132.818;-42.327;;;;
04_S11;04/05/2023;16:20:19.600;0.6431;-0.0049;0.7937;-1.431.274;-1.221.313;751.266;33.569;-132.818;-42.327;;;;
04_S11;04/05/2023;16:20:19.700;0.8745;-0.3477;0.6084;-1.454.239;-1.521.149;412.140;135.737;-232.066;-0.7298;;;;
04_S11;04/05/2023;16:20:19.800;0.8755;-0.4636;0.3660;-857.468;-682.831;987.549;239.364;-315.260;-61.301;;;;
04_S11;04/05/2023;16:20:19.900;0.7090;-0.6357;0.1655;-844.269;-723.419;1.187.134;341.531;-335.693;-110.925;;;;
04_S11;04/05/2023;16:20:20.000;0.6106;-0.6187;-0.2876;-1.773.987;-1.217.728;645.370;450.997;-360.505;-243.743;Inactive;0;24.56;
04_S11;04/05/2023;16:20:20.100;0.5256;-0.5618;-0.6646;-2.500.000;-1.089.554;580.826;450.997;-360.505;-243.743;;;;
04_S11;04/05/2023;16:20:20.200;0.4026;-0.5134;-0.7822;-666.504;-866.928;124.893;472.890;-329.855;-423.265;;;;
04_S11;04/05/2023;16:20:20.300;0.1707;-0.4531;-0.8740;-610.352;-1.891.174;244.293;468.511;-287.529;-535.650;;;;
04_S11;04/05/2023;16:20:20.400;-0.1958;-0.2471;-0.8923;-366.135;-1.728.668;857.925;455.375;-154.711;-613.005;;;;
04_S11;04/05/2023;16:20:20.500;-0.4319;-0.1851;-0.8230;-500.336;-1.190.262;378.723;442.239;-56.922;-640.736;;;;
04_S11;04/05/2023;16:20:20.600;-0.5481;-0.1499;-0.8157;-468.445;-528.488;-76.599;442.239;-56.922;-640.736;;;;
04_S11;04/05/2023;16:20:20.700;-0.5657;-0.1299;-0.7710;-448.685;-568.695;183.029;399.913;-37.948;-645.115;;;;
04_S11;04/05/2023;16:20:20.800;-0.6711;0.0576;-0.6887;-668.259;-530.853;466.461;372.182;13.136;-669.927;;;;
04_S11;04/05/2023;16:20:20.900;-0.7261;0.1907;-0.6038;-752.716;-549.164;304.337;310.881;51.084;-672.846;;;;
04_S11;04/05/2023;16:20:21.000;-0.7927;0.2795;-0.4927;-495.987;-651.855;272.980;310.881;51.084;-672.846;Inactive;0;24.54;
04_S11;04/05/2023;16:20:21.100;-0.8235;0.4014;-0.3577;-680.466;-581.512;537.338;267.095;112.384;-646.574;;;;
04_S11;04/05/2023;16:20:21.200;-0.7180;0.5774;-0.1992;-1.079.407;-532.913;1.071.014;173.685;153.251;-620.303;;;;
04_S11;04/05/2023;16:20:21.300;-0.6772;0.7112;-0.0784;-576.477;-374.374;736.313;84.653;143.035;-577.976;;;;
04_S11;04/05/2023;16:20:21.400;-0.6018;0.7861;0.0146;-514.908;-368.042;653.076;32.110;145.954;-551.705;;;;
04_S11;04/05/2023;16:20:21.500;-0.5071;0.8396;0.1672;-719.376;-583.954;662.384;32.110;145.954;-551.705;;;;
04_S11;04/05/2023;16:20:21.600;-0.3579;0.8528;0.3804;-1.061.096;-770.111;681.534;-21.893;132.818;-474.349;;;;
04_S11;04/05/2023;16:20:21.700;-0.2556;0.8408;0.5435;-820.312;-804.367;345.154;-86.113;100.708;-357.586;;;;
04_S11;04/05/2023;16:20:21.800;-0.2122;0.8064;0.5977;34.485;-545.731;-166.473;-72.977;102.168;-324.017;;;;
04_S11;04/05/2023;16:20:21.900;-0.1521;0.7996;0.6411;-125.275;-969.925;-138.092;-77.355;109.465;-287.529;;;;
04_S11;04/05/2023;16:20:22.000;-0.0754;0.7205;0.6841;-451.279;-925.522;-162.811;-77.355;109.465;-287.529;Inactive;0;24.54;
04_S11;04/05/2023;16:20:22.100;0.1323;0.6841;0.7559;-400.772;-1.354.218;-0.3662;-55.462;108.006;-201.416;;;;
04_S11;04/05/2023;16:20:22.200;0.2339;0.6191;0.7695;-570.755;-1.098.175;-136.642;-27.731;45.246;-118.222;;;;
04_S11;04/05/2023;16:20:22.300;0.4180;0.4392;0.8853;-1.261.444;-1.242.981;-51.498;49.624;-23.353;-43.786;;;;
04_S11;04/05/2023;16:20:22.400;0.5344;0.4111;0.7749;-439.148;-883.789;-65.155;70.058;-75.896;-26.272;;;;
04_S11;04/05/2023;16:20:22.500;0.6631;0.3794;0.7390;-512.848;-1.168.594;-151.825;70.058;-75.896;-26.272;;;;
04_S11;04/05/2023;16:20:22.600;0.7695;0.2634;0.6279;-493.011;-970.230;233.612;112.384;-150.332;0.1460;;;;
04_S11;04/05/2023;16:20:22.700;0.8018;0.2095;0.4253;-522.156;-1.102.600;525.894;147.413;-234.985;-0.1460;;;;
04_S11;04/05/2023;16:20:22.800;10.007;0.0269;0.2065;-789.795;-1.490.402;326.004;218.930;-332.774;-67.139;;;;
04_S11;04/05/2023;16:20:22.900;10.374;-0.0710;0.0142;-412.445;-1.646.805;544.891;267.095;-413.049;-179.523;;;;
04_S11;04/05/2023;16:20:23.000;0.9294;-0.0881;-0.1946;-244.064;-988.998;445.480;267.095;-413.049;-179.523;Inactive;0;24.54;
04_S11;04/05/2023;16:20:23.100;0.9089;-0.1311;-0.3855;-174.789;-966.263;244.598;309.422;-426.185;-242.283;;;;
04_S11;04/05/2023;16:20:23.200;0.8457;-0.1440;-0.7170;-659.332;-1.367.874;541.000;337.153;-436.401;-342.991;;;;
04_S11;04/05/2023;16:20:23.300;0.6887;-0.1335;-0.6628;-454.788;-815.887;355.530;361.965;-405.751;-458.294;;;;
04_S11;04/05/2023;16:20:23.400;0.6243;-0.0872;-0.6426;100.632;-248.489;-290.451;342.991;-413.049;-450.997;;;;
04_S11;04/05/2023;16:20:23.500;0.5852;-0.1252;-0.8196;149.765;-269.089;104.675;342.991;-413.049;-450.997;;;;
04_S11;04/05/2023;16:20:23.600;0.5693;-0.1738;-0.8892;38.681;-575.638;26.016;357.586;-401.372;-477.268;;;;
04_S11;04/05/2023;16:20:23.700;0.2383;-0.2632;-0.8684;426.102;-1.227.951;114.594;366.344;-354.667;-550.245;;;;
04_S11;04/05/2023;16:20:23.800;0.2222;-0.2634;-0.8647;151.215;-401.611;221.634;396.994;-321.098;-566.300;;;;
04_S11;04/05/2023;16:20:23.900;0.2434;-0.2612;-0.9258;-118.713;66.376;359.039;402.832;-312.341;-575.057;;;;
04_S11;04/05/2023;16:20:24.000;0.1025;-0.1792;-0.9370;-393.753;-517.120;458.145;402.832;-312.341;-575.057;Inactive;0;24.56;
04_S11;04/05/2023;16:20:24.100;-0.0581;-0.2251;-10.122;-249.329;-787.277;64.392;399.913;-271.474;-621.762;;;;
04_S11;04/05/2023;16:20:24.200;-0.2278;-0.1970;-0.9966;336.380;-864.716;294.571;407.211;-214.552;-646.574;;;;
04_S11;04/05/2023;16:20:24.300;-0.3601;-0.2957;-0.8369;575.180;-995.407;139.847;456.835;-141.575;-629.060;;;;
04_S11;04/05/2023;16:20:24.400;-0.4380;-0.5720;-0.7791;821.381;-868.912;281.372;497.702;-59.841;-602.788;;;;
04_S11;04/05/2023;16:20:24.500;-0.7258;-0.0959;-0.4976;146.332;-1.405.716;1.197.662;497.702;-59.841;-602.788;;;;
04_S11;04/05/2023;16:20:24.600;-0.8582;-0.2383;-0.4509;24.185;-774.460;214.996;471.430;48.165;-550.245;;;;
04_S11;04/05/2023;16:20:24.700;-0.8582;-0.3689;-0.2522;197.754;-1.065.140;-167.313;486.025;83.194;-515.216;;;;
04_S11;04/05/2023;16:20:24.800;-0.9141;-0.2966;-0.0449;280.075;-937.958;370.483;483.106;121.141;-439.320;;;;
04_S11;04/05/2023;16:20:24.900;-0.9644;-0.2112;0.0535;382.309;-674.057;365.906;483.106;121.141;-439.320;;;;
04_S11;04/05/2023;16:20:25.000;-0.9612;-0.1047;0.2109;616.226;-687.408;327.911;483.106;121.141;-439.320;Inactive;0;24.57;
04_S11;04/05/2023;16:20:25.100;-0.9207;-0.1353;0.3083;242.996;-741.272;13.885;458.294;169.306;-324.017;;;;
04_S11;04/05/2023;16:20:25.200;-0.8440;-0.1443;0.4678;323.563;-1.062.698;292.587;450.997;170.766;-255.419;;;;
04_S11;04/05/2023;16:20:25.300;-0.6560;0.1858;0.7395;1.113.129;-1.835.709;665.054;382.398;128.439;-108.006;;;;
04_S11;04/05/2023;16:20:25.400;-0.4700;0.2148;0.8923;428.772;-1.303.940;289.078;382.398;128.439;-108.006;;;;
04_S11;04/05/2023;16:20:25.500;-0.3757;0.2463;0.9333;-87.662;-636.597;244.904;357.586;65.679;-51.084;;;;
04_S11;04/05/2023;16:20:25.600;-0.2600;0.2163;10.229;-384.521;-657.578;221.252;364.884;32.110;-35.029;;;;
04_S11;04/05/2023;16:20:25.700;-0.1902;0.1631;0.9756;60.883;-349.503;152.359;360.505;0.7298;-36.488;;;;
04_S11;04/05/2023;16:20:25.800;-0.0925;0.3032;0.9980;740.204;-502.396;194.931;325.477;-21.893;-0.4379;;;;
04_S11;04/05/2023;16:20:25.900;0.1941;0.6443;0.8530;2.010.956;-1.613.159;447.769;325.477;-21.893;-0.4379;;;;
04_S11;04/05/2023;16:20:26.000;0.3123;0.7969;0.5920;1.520.996;-1.258.469;240.631;144.494;-150.332;18.974;Inactive;0;24.56;
04_S11;04/05/2023;16:20:26.100;0.4089;0.8560;0.3962;649.490;-608.749;108.185;71.517;-208.714;-30.650;;;;
04_S11;04/05/2023;16:20:26.200;0.4822;0.8911;0.2300;870.132;-820.694;194.321;39.407;-255.419;-77.355;;;;
04_S11;04/05/2023;16:20:26.300;0.4863;0.8958;-0.0063;994.797;-849.304;11.673;-10.217;-302.124;-170.766;;;;
04_S11;04/05/2023;16:20:26.400;0.3887;0.8977;-0.2356;1.059.189;-738.449;-532.913;-10.217;-302.124;-170.766;;;;
04_S11;04/05/2023;16:20:26.500;0.2405;0.8489;-0.5176;1.505.051;-609.283;-597.916;-72.977;-288.988;-268.555;;;;
04_S11;04/05/2023;16:20:26.600;0.1211;0.7319;-0.6936;1.014.023;-923.996;-225.449;-86.113;-270.014;-395.534;;;;
04_S11;04/05/2023;16:20:26.700;0.0220;0.6262;-0.7588;724.792;-925.827;-0.0763;-93.410;-242.283;-487.485;;;;
04_S11;04/05/2023;16:20:26.800;-0.1165;0.5627;-0.7920;515.747;-882.797;98.038;-56.922;-217.471;-547.326;;;;
04_S11;04/05/2023;16:20:26.900;-0.2441;0.5156;-0.8296;377.197;-815.201;60.959;-56.922;-217.471;-547.326;;;;
04_S11;04/05/2023;16:20:27.000;-0.3496;0.4138;-0.7893;383.606;-731.964;16.785;-37.948;-169.306;-592.572;Inactive;0;24.58;
04_S11;04/05/2023;16:20:27.100;-0.4353;0.4243;-0.7886;359.879;-631.485;76.141;-11.676;-137.196;-630.520;;;;
04_S11;04/05/2023;16:20:27.200;-0.5598;0.3518;-0.7839;350.647;-699.387;-136.490;-0.7298;-89.032;-649.494;;;;
04_S11;04/05/2023;16:20:27.300;-0.6631;0.2827;-0.6863;487.213;-761.261;-227.585;46.705;-35.029;-665.548;;;;
04_S11;04/05/2023;16:20:27.400;-0.7417;0.1135;-0.6479;661.926;-386.124;-359.039;46.705;-35.029;-665.548;;;;
04_S11;04/05/2023;16:20:27.500;-0.7405;-0.0266;-0.6025;799.789;-497.208;-379.715;105.087;14.595;-671.387;;;;
04_S11;04/05/2023;16:20:27.600;-0.8318;-0.1411;-0.5012;424.500;-550.690;-284.729;166.387;49.624;-662.629;;;;
04_S11;04/05/2023;16:20:27.700;-0.8853;-0.1667;-0.4043;478.287;-725.937;-291.367;191.199;109.465;-643.655;;;;
04_S11;04/05/2023;16:20:27.800;-0.8481;-0.2849;-0.1550;1.099.548;-1.063.004;-346.680;290.448;164.928;-582.355;;;;
04_S11;04/05/2023;16:20:27.900;-0.8923;-0.3093;0.0503;660.019;-990.448;-18.082;290.448;164.928;-582.355;;;;
04_S11;04/05/2023;16:20:28.000;-0.8684;-0.2549;0.2693;899.200;-1.113.052;239.105;313.800;217.471;-506.459;Inactive;0;24.59;
04_S11;04/05/2023;16:20:28.100;-0.9014;-0.1853;0.4429;778.885;-654.602;251.160;303.583;256.878;-420.346;;;;
04_S11;04/05/2023;16:20:28.200;-0.8501;-0.1682;0.5056;356.903;-655.289;-230.331;321.098;248.121;-356.127;;;;
04_S11;04/05/2023;16:20:28.300;-0.6648;-0.2354;0.7224;253.830;-1.059.418;-375.137;337.153;234.985;-281.690;;;;
04_S11;04/05/2023;16:20:28.400;-0.6377;-0.2083;0.8042;-12.436;-585.556;-0.7401;337.153;234.985;-281.690;;;;
04_S11;04/05/2023;16:20:28.500;-0.5688;-0.2217;0.8281;13.962;-386.963;-0.0458;342.991;223.309;-243.743;;;;
04_S11;04/05/2023;16:20:28.600;-0.4998;-0.2805;0.6841;-44.632;-398.788;-0.1831;337.153;226.228;-229.147;;;;
04_S11;04/05/2023;16:20:28.700;-0.4089;-0.2009;0.8936;224.152;-681.076;125.656;338.612;201.416;-175.144;;;;
04_S11;04/05/2023;16:20:28.800;-0.2715;-0.1277;10.190;72.632;-676.422;446.091;302.124;185.361;-129.899;;;;
04_S11;04/05/2023;16:20:28.900;-0.2441;-0.0845;10.249;318.298;-530.319;373.383;302.124;185.361;-129.899;;;;
04_S11;04/05/2023;16:20:29.000;-0.1536;-0.0320;10.254;130.005;-619.049;194.626;270.014;144.494;-100.708;Inactive;0;24.62;
04_S11;04/05/2023;16:20:29.100;-0.0015;-0.0100;10.728;59.814;-577.774;234.909;255.419;124.061;-56.922;;;;
04_S11;04/05/2023;16:20:29.200;0.0791;0.0098;10.605;197.754;-584.335;51.117;230.607;96.329;-35.029;;;;
04_S11;04/05/2023;16:20:29.300;0.2397;0.0908;10.007;345.383;-1.009.216;-111.923;230.607;96.329;-35.029;;;;
04_S11;04/05/2023;16:20:29.400;0.4421;0.1787;0.9197;454.636;-1.093.521;-273.056;221.849;26.272;11.676;;;;
04_S11;04/05/2023;16:20:29.500;0.5432;0.3523;0.8391;731.277;-1.079.102;-718.460;173.685;-59.841;18.974;;;;
04_S11;04/05/2023;16:20:29.600;0.6184;0.5098;0.6477;737.686;-935.287;-733.948;124.061;-126.980;18.974;;;;
04_S11;04/05/2023;16:20:29.700;0.6533;0.6724;0.4529;704.346;-1.183.395;-732.422;48.165;-185.361;-30.650;;;;
04_S11;04/05/2023;16:20:29.800;0.6514;0.7051;0.2600;321.884;-1.121.902;-450.974;48.165;-185.361;-30.650;;;;
04_S11;04/05/2023;16:20:29.900;0.6946;0.7966;0.0554;390.701;-1.292.572;-64.774;35.029;-251.040;-78.815;;;;
04_S11;04/05/2023;16:20:30.000;0.6521;0.7808;-0.1433;890.884;-1.723.480;-141.373;-10.217;-322.557;-164.928;Inactive;0;24.6;
04_S11;04/05/2023;16:20:30.100;0.5510;0.6997;-0.4480;335.159;-762.863;0.8774;-39.407;-351.748;-261.257;;;;
04_S11;04/05/2023;16:20:30.200;0.5400;0.7317;-0.4478;128.708;-704.117;-38.605;-36.488;-351.748;-319.638;;;;
04_S11;04/05/2023;16:20:30.300;0.4292;0.7190;-0.5376;389.633;-760.651;-254.593;-36.488;-351.748;-319.638;;;;
04_S11;04/05/2023;16:20:30.400;0.3140;0.6953;-0.6653;428.085;-731.506;-170.898;-51.084;-340.072;-375.101;;;;
04_S11;04/05/2023;16:20:30.500;0.1987;0.6028;-0.8467;734.634;-629.807;-117.569;-54.003;-307.962;-450.997;;;;
04_S11;04/05/2023;16:20:30.600;0.0952;0.4426;-0.8652;830.994;-798.721;-53.406;-30.650;-290.448;-550.245;;;;
04_S11;04/05/2023;16:20:30.700;-0.0100;0.3479;-0.9138;624.466;-536.575;-106.506;14.595;-259.797;-598.410;;;;
04_S11;04/05/2023;16:20:30.800;-0.0850;0.2710;-0.9377;450.821;-451.050;-242.157;14.595;-259.797;-598.410;;;;
04_S11;04/05/2023;16:20:30.900;-0.1616;0.2224;-0.9258;60.806;-277.786;-211.868;29.191;-216.011;-627.600;;;;
04_S11;04/05/2023;16:20:31.000;-0.1936;0.2107;-0.9490;321.732;-25.940;-24.643;30.650;-197.037;-646.574;Inactive;0;24.64;
04_S11;04/05/2023;16:20:31.100;-0.2046;0.1301;-0.9529;380.554;-136.032;-96.359;62.760;-197.037;-664.089;;;;
04_S11;04/05/2023;16:20:31.200;-0.2295;0.0564;-0.9434;408.936;-217.972;-71.869;84.653;-160.549;-680.144;;;;
04_S11;04/05/2023;16:20:31.300;-0.3259;-0.0530;-0.9312;460.052;-470.123;-49.057;84.653;-160.549;-680.144;;;;
04_S11;04/05/2023;16:20:31.400;-0.4436;-0.1060;-0.8623;472.336;-696.716;18.082;125.520;-125.520;-691.820;;;;
04_S11;04/05/2023;16:20:31.500;-0.5112;-0.2112;-0.8044;451.660;-483.017;-189.819;151.792;-93.410;-715.173;;;;
04_S11;04/05/2023;16:20:31.600;-0.5457;-0.2891;-0.7056;534.744;-515.900;-111.465;197.037;-33.569;-710.794;;;;
04_S11;04/05/2023;16:20:31.700;-0.6023;-0.3440;-0.6099;531.311;-392.380;-101.929;239.364;0.2919;-697.658;;;;
04_S11;04/05/2023;16:20:31.800;-0.6257;-0.4204;-0.5781;426.254;-208.054;-202.560;239.364;0.2919;-697.658;;;;
04_S11;04/05/2023;16:20:31.900;-0.6489;-0.5393;-0.4944;577.774;-342.636;-182.419;270.014;13.136;-690.361;;;;
04_S11;04/05/2023;16:20:32.000;-0.7048;-0.5798;-0.3606;909.424;-427.094;-0.0839;335.693;49.624;-668.467;Inactive;0;24.65;
04_S11;04/05/2023;16:20:32.100;-0.7036;-0.6636;-0.1509;1.219.559;-396.729;-130.310;417.427;70.058;-607.167;;;;
04_S11;04/05/2023;16:20:32.200;-0.6794;-0.7039;-0.0063;860.138;-471.420;-152.588;474.349;80.274;-544.407;;;;
04_S11;04/05/2023;16:20:32.300;-0.6631;-0.7285;0.1252;641.632;-444.870;-112.534;474.349;80.274;-544.407;;;;
04_S11;04/05/2023;16:20:32.400;-0.6333;-0.6841;0.2725;735.092;-470.581;-71.793;484.566;75.896;-490.404;;;;
04_S11;04/05/2023;16:20:32.500;-0.5503;-0.6440;0.4980;1.022.491;-772.781;-272.980;518.135;86.113;-413.049;;;;
04_S11;04/05/2023;16:20:32.600;-0.4209;-0.5994;0.7175;996.017;-797.882;-439.911;526.892;59.841;-293.367;;;;
04_S11;04/05/2023;16:20:32.700;-0.3049;-0.5964;0.7654;398.331;-329.056;-681.686;547.326;16.055;-267.095;;;;
04_S11;04/05/2023;16:20:32.800;-0.1946;-0.6199;0.7742;141.830;-165.634;-924.683;547.326;16.055;-267.095;;;;
04_S11;04/05/2023;16:20:32.900;-0.0703;-0.6165;0.8069;199.585;-313.797;-642.395;563.381;-49.624;-253.959;;;;
04_S11;04/05/2023;16:20:33.000;0.0840;-0.5208;0.9355;676.041;-528.183;-556.793;550.245;-118.222;-211.633;Inactive;0;24.67;
04_S11;04/05/2023;16:20:33.100;0.1128;-0.4729;0.9297;303.955;-241.013;-384.064;525.433;-148.873;-180.982;;;;
04_S11;04/05/2023;16:20:33.200;0.1465;-0.4102;0.9673;343.628;-194.550;-149.765;525.433;-148.873;-180.982;;;;
04_S11;04/05/2023;16:20:33.300;0.2021;-0.3513;0.9492;315.247;-92.697;-146.332;515.216;-182.442;-167.847;;;;
04_S11;04/05/2023;16:20:33.400;0.2649;-0.3105;0.9646;105.209;109.100;-270.615;500.621;-191.199;-153.251;;;;
04_S11;04/05/2023;16:20:33.500;0.0356;-0.1824;10.181;669.479;1.079.330;-138.702;474.349;-150.332;-103.627;;;;
04_S11;04/05/2023;16:20:33.600;0.0498;-0.1702;10.371;214.157;17.548;-78.125;458.294;-169.306;-93.410;;;;
04_S11;04/05/2023;16:20:33.700;0.0435;-0.0664;10.422;630.646;141.296;16.479;458.294;-169.306;-93.410;;;;
04_S11;04/05/2023;16:20:33.800;0.0117;0.1638;10.159;1.134.720;10.376;52.795;410.130;-159.089;-54.003;;;;
04_S11;04/05/2023;16:20:33.900;0.0310;0.2808;0.9968;677.185;12.665;-0.6638;340.072;-159.089;-0.4379;;;;
04_S11;04/05/2023;16:20:34.000;0.0205;0.3635;0.9583;719.681;163.422;75.912;302.124;-144.494;-0.4379;Inactive;0;24.67;
04_S11;04/05/2023;16:20:34.100;-0.0037;0.5090;0.8979;833.664;177.994;17.166;246.662;-132.818;16.055;;;;
04_S11;04/05/2023;16:20:34.200;-0.0303;0.6675;0.7869;1.057.358;41.122;68.970;246.662;-132.818;16.055;;;;
04_S11;04/05/2023;16:20:34.300;-0.0159;0.7605;0.6721;849.762;51.498;75.912;159.089;-141.575;0.1460;;;;
04_S11;04/05/2023;16:20:34.400;0.0054;0.8459;0.5859;662.918;69.427;76.447;90.491;-143.035;-17.514;;;;
04_S11;04/05/2023;16:20:34.500;-0.0078;0.9209;0.4260;836.716;15.869;-10.223;43.786;-145.954;-26.272;;;;
04_S11;04/05/2023;16:20:34.600;-0.0020;0.9568;0.2705;1.027.527;-25.787;-0.0076;-16.055;-129.899;-89.032;;;;
04_S11;04/05/2023;16:20:34.700;0.0146;0.9863;0.1472;839.233;143.204;251.694;-16.055;-129.899;-89.032;;;;
04_S11;04/05/2023;16:20:34.800;0.1404;0.9941;-0.0830;1.256.638;-0.4730;660.172;-61.301;-154.711;-134.277;;;;
04_S11;04/05/2023;16:20:34.900;0.2261;0.9607;-0.2756;1.141.205;112.228;467.911;-102.168;-192.659;-236.445;;;;
04_S11;04/05/2023;16:20:35.000;0.3284;0.8794;-0.3413;586.777;395.660;611.572;-112.384;-240.823;-275.852;Inactive;0;24.66;
04_S11;04/05/2023;16:20:35.100;0.5020;0.7622;-0.4285;660.172;628.357;639.648;-100.708;-261.257;-296.286;;;;
04_S11;04/05/2023;16:20:35.200;0.6277;0.6887;-0.4431;478.973;740.814;500.107;-100.708;-261.257;-296.286;;;;
04_S11;04/05/2023;16:20:35.300;0.7114;0.6077;-0.3855;414.886;754.929;427.628;-77.355;-287.529;-296.286;;;;
04_S11;04/05/2023;16:20:35.400;0.7791;0.5396;-0.3330;342.102;640.945;332.642;-78.815;-303.583;-294.826;;;;
04_S11;04/05/2023;16:20:35.500;0.8464;0.4683;-0.2676;406.723;697.327;351.410;-65.679;-307.962;-290.448;;;;
04_S11;04/05/2023;16:20:35.600;0.9043;0.3945;-0.1985;420.303;743.179;464.478;-45.246;-325.477;-284.610;;;;
04_S11;04/05/2023;16:20:35.700;0.9666;0.2932;-0.1079;284.424;732.880;528.107;-45.246;-325.477;-284.610;;;;
04_S11;04/05/2023;16:20:35.800;0.9858;0.2141;-0.0049;183.105;710.297;448.837;-35.029;-344.450;-265.636;;;;
04_S11;04/05/2023;16:20:35.900;0.9983;0.1414;0.1008;92.163;605.316;375.900;-14.595;-353.208;-236.445;;;;
04_S11;04/05/2023;16:20:36.000;0.9758;0.1089;0.1941;57.144;572.586;277.939;0.0000;-347.370;-213.092;Inactive;0;24.67;
04_S11;04/05/2023;16:20:36.100;0.9783;0.0662;0.2856;98.038;544.357;292.358;16.055;-351.748;-185.361;;;;
04_S11;04/05/2023;16:20:36.200;0.9441;-0.0056;0.3503;-80.566;499.420;434.265;16.055;-351.748;-185.361;;;;
04_S11;04/05/2023;16:20:36.300;0.9358;-0.0403;0.4353;131.683;284.195;161.438;49.624;-347.370;-148.873;;;;
04_S11;04/05/2023;16:20:36.400;0.9043;-0.0161;0.4929;280.838;490.265;65.842;45.246;-334.234;-147.413;;;;
04_S11;04/05/2023;16:20:36.500;0.8264;0.0244;0.5635;344.391;697.708;-40.283;16.055;-310.881;-132.818;;;;
04_S11;04/05/2023;16:20:36.600;0.7634;0.0686;0.6440;336.075;546.951;-31.128;-0.7298;-272.933;-126.980;;;;
04_S11;04/05/2023;16:20:36.700;0.7197;0.0938;0.7253;240.402;534.363;-64.697;-0.7298;-272.933;-126.980;;;;
04_S11;04/05/2023;16:20:36.800;0.6211;0.0747;0.8127;-30.365;810.699;19.226;-20.434;-253.959;-108.006;;;;
04_S11;04/05/2023;16:20:36.900;0.5073;0.0679;0.9375;24.796;881.653;97.885;-11.676;-183.902;-90.491;;;;
04_S11;04/05/2023;16:20:37.000;0.4170;0.1289;0.9883;207.138;594.177;46.539;-27.731;-153.251;-100.708;Inactive;0;24.7;
04_S11;04/05/2023;16:20:37.100;0.2917;0.1943;10.417;483.170;983.887;0.0687;-27.731;-153.251;-100.708;;;;
04_S11;04/05/2023;16:20:37.200;0.0354;0.1418;10.054;-170.975;1.386.566;133.133;-46.705;-113.844;-93.410;;;;
04_S11;04/05/2023;16:20:37.300;-0.0964;0.1299;10.288;-272.293;861.053;161.591;-27.731;-56.922;-91.951;;;;
04_S11;04/05/2023;16:20:37.400;-0.2263;0.0432;10.125;-431.366;742.035;255.585;-14.595;-17.514;-81.734;;;;
04_S11;04/05/2023;16:20:37.500;-0.3472;0.0400;0.9817;-348.282;720.749;280.609;17.514;0.2919;-72.977;;;;
04_S11;04/05/2023;16:20:37.600;-0.4387;-0.0388;0.9009;-634.842;644.684;68.665;17.514;0.2919;-72.977;;;;
04_S11;04/05/2023;16:20:37.700;-0.5039;-0.1899;0.8826;-803.070;395.584;-17.853;52.543;40.867;-49.624;;;;
04_S11;04/05/2023;16:20:37.800;-0.5322;-0.3367;0.7896;-985.641;340.576;-84.305;109.465;62.760;-39.407;;;;
04_S11;04/05/2023;16:20:37.900;-0.5759;-0.5220;0.6382;-1.509.933;298.080;-211.945;192.659;93.410;-37.948;;;;
04_S11;04/05/2023;16:20:38.000;-0.4695;-0.7349;0.4426;-1.815.414;-53.864;-518.341;342.991;65.679;-54.003;Inactive;0;24.7;
04_S11;04/05/2023;16:20:38.100;-0.3611;-0.9319;0.2197;-1.646.042;86.746;-691.452;342.991;65.679;-54.003;;;;
04_S11;04/05/2023;16:20:38.200;-0.2864;-0.9001;0.0461;-1.057.816;502.777;-501.556;449.537;55.462;-125.520;;;;
04_S11;04/05/2023;16:20:38.300;-0.1125;-0.9087;-0.2764;-1.479.950;1.193.390;-627.365;516.676;49.624;-204.335;;;;
04_S11;04/05/2023;16:20:38.400;-0.0354;-0.8618;-0.4946;-1.085.968;1.312.485;-326.843;556.083;42.327;-357.586;;;;
04_S11;04/05/2023;16:20:38.500;0.0857;-0.7710;-0.6077;-619.583;706.940;-161.438;561.921;27.731;-407.211;;;;
04_S11;04/05/2023;16:20:38.600;0.1394;-0.7251;-0.6619;-599.594;760.040;-0.6104;561.921;27.731;-407.211;;;;
04_S11;04/05/2023;16:20:38.700;0.2747;-0.6453;-0.6716;-566.788;843.811;-84.000;548.786;0.5838;-481.647;;;;
04_S11;04/05/2023;16:20:38.800;0.3323;-0.6118;-0.6855;-493.469;785.828;0.2823;521.054;-16.055;-529.812;;;;
04_S11;04/05/2023;16:20:38.900;0.4509;-0.5459;-0.7288;-394.135;621.033;-156.021;523.973;-56.922;-570.679;;;;
04_S11;04/05/2023;16:20:39.000;0.5735;-0.4119;-0.6731;-506.287;493.622;-425.186;491.864;-97.789;-596.950;Inactive;0;24.74;
04_S11;04/05/2023;16:20:39.100;0.6541;-0.3318;-0.6450;-547.256;824.127;-415.573;491.864;-97.789;-596.950;;;;
04_S11;04/05/2023;16:20:39.200;0.7588;-0.2185;-0.5518;-491.486;876.083;-461.731;456.835;-182.442;-629.060;;;;
04_S11;04/05/2023;16:20:39.300;0.8875;-0.0908;-0.4709;-386.047;728.531;-567.169;402.832;-248.121;-624.681;;;;
04_S11;04/05/2023;16:20:39.400;0.9604;-0.0066;-0.3850;-329.742;811.539;-383.224;372.182;-307.962;-599.869;;;;
04_S11;04/05/2023;16:20:39.500;0.9822;0.0283;-0.2349;-210.953;792.084;-131.607;359.046;-353.208;-563.381;;;;
04_S11;04/05/2023;16:20:39.600;10.278;0.0427;-0.1135;-230.179;863.113;86.136;359.046;-353.208;-563.381;;;;
04_S11;04/05/2023;16:20:39.700;10.085;0.0225;-0.0042;-117.340;521.088;76.294;340.072;-386.777;-521.054;;;;
04_S11;04/05/2023;16:20:39.800;0.9861;-0.0103;0.0662;-77.362;342.026;72.632;354.667;-380.939;-518.135;;;;
04_S11;04/05/2023;16:20:39.900;10.054;-0.0239;0.1472;-34.103;424.957;-49.896;350.289;-402.832;-481.647;;;;
04_S11;04/05/2023;16:20:40.000;0.9885;0.0291;0.2312;172.195;617.065;62.943;356.127;-417.427;-440.780;Inactive;0;24.74;
04_S11;04/05/2023;16:20:40.100;0.9795;0.0110;0.2568;134.888;90.256;38.986;356.127;-417.427;-440.780;;;;
04_S11;04/05/2023;16:20:40.200;10.278;0.0044;0.3208;278.320;69.046;44.403;360.505;-418.887;-433.482;;;;
04_S11;04/05/2023;16:20:40.300;0.9531;0.0586;0.3665;459.824;744.019;-56.229;375.101;-421.806;-375.101;;;;
04_S11;04/05/2023;16:20:40.400;0.8982;0.1067;0.4226;297.394;18.616;-205.383;357.586;-433.482;-366.344;;;;
04_S11;04/05/2023;16:20:40.500;0.9597;0.2146;0.3586;208.817;-221.481;-416.641;357.586;-433.482;-366.344;;;;
04_S11;04/05/2023;16:20:40.600;0.8921;0.1938;0.3262;110.931;126.343;-291.443;329.855;-443.699;-373.641;;;;
04_S11;04/05/2023;16:20:40.700;0.8647;0.1533;0.4900;-877.457;842.056;333.862;302.124;-453.916;-357.586;;;;
04_S11;04/05/2023;16:20:40.800;0.8508;-0.0798;0.7395;-1.154.327;1.318.054;587.387;367.803;-437.861;-306.503;;;;
04_S11;04/05/2023;16:20:40.900;0.6204;-0.0984;0.8152;74.844;1.422.882;355.072;379.479;-405.751;-213.092;;;;
04_S11;04/05/2023;16:20:41.000;0.4600;-0.0496;10.059;483.551;798.264;145.645;379.479;-405.751;-213.092;Inactive;0;24.73;
04_S11;04/05/2023;16:20:41.100;0.3330;-0.0171;0.9556;0.4730;747.681;279.694;375.101;-363.424;-144.494;;;;
04_S11;04/05/2023;16:20:41.200;0.3291;-0.0085;0.9597;140.991;141.525;213.928;392.615;-319.638;-112.384;;;;
04_S11;04/05/2023;16:20:41.300;0.2832;-0.0696;0.9771;-103.302;113.373;329.971;408.670;-315.260;-125.520;;;;
04_S11;04/05/2023;16:20:41.400;0.2422;-0.0618;10.186;95.520;190.964;121.078;408.670;-294.826;-96.329;;;;
04_S11;04/05/2023;16:20:41.500;0.2144;-0.0615;10.115;15.793;318.985;-49.286;408.670;-294.826;-96.329;;;;
04_S11;04/05/2023;16:20:41.600;0.1682;-0.0947;10.105;-314.865;490.875;41.885;414.508;-288.988;-102.168;;;;
04_S11;04/05/2023;16:20:41.700;0.0598;-0.1780;0.9983;-526.657;526.505;125.275;433.482;-252.500;-94.870;;;;
04_S11;04/05/2023;16:20:41.800;0.0447;-0.1741;0.9858;133.820;156.479;137.711;461.213;-251.040;-102.168;;;;
04_S11;04/05/2023;16:20:41.900;0.0149;-0.1252;10.415;251.007;34.485;170.441;488.945;-249.581;-56.922;;;;
04_S11;04/05/2023;16:20:42.000;-0.0149;-0.0984;10.850;198.593;44.708;139.084;488.945;-249.581;-56.922;Inactive;0;24.74;
04_S11;04/05/2023;16:20:42.100;-0.0120;-0.0732;10.713;63.782;57.602;64.850;516.676;-248.121;-0.5838;;;;
04_S11;04/05/2023;16:20:42.200;-0.0007;-0.0701;10.444;15.182;40.588;54.626;449.537;-70.058;40.867;;;;
04_S11;04/05/2023;16:20:42.300;-0.0125;-0.0779;10.439;15.030;55.695;77.591;341.531;134.277;17.514;;;;
04_S11;04/05/2023;16:20:42.400;-0.0251;-0.0615;10.488;70.648;38.528;34.332;147.413;1.145.736;-734.147;;;;
04_S11;04/05/2023;16:20:42.500;-0.0247;-0.0295;10.552;102.844;35.477;10.529;147.413;1.145.736;-734.147;;;;
04_S11;04/05/2023;16:20:42.600;-0.0337;-0.0278;10.432;57.373;25.482;26.627;-52.543;4.521.643;-4.574.186;;;;
04_S11;04/05/2023;16:20:42.700;-0.0264;-0.0308;10.220;10.147;0.8240;15.945;-4.209.302;28.933.842;-17.645.790;;;;TIMEMARK!
04_S11;04/05/2023;16:20:42.800;-0.0156;-0.0142;10.330;0.7401;23.346;-0.6485;-8.437.578;39.382.660;-2.765.821;;;;
04_S11;04/05/2023;16:20:42.900;-0.0176;-0.0083;10.325;0.8698;25.711;0.7553;-3.428.450;44.391.787;-2.091.515;;;;
04_S11;04/05/2023;16:20:43.000;-0.0242;-0.0164;10.452;-0.2899;37.918;16.251;-3.428.450;44.391.787;-2.091.515;Inactive;0;24.78;
04_S11;04/05/2023;16:20:43.100;-0.0229;-0.0115;10.452;-12.131;31.204;0.9842;-5.963.664;41.856.573;-4.115.892;;;;
04_S11;04/05/2023;16:20:43.200;-0.0259;-0.0078;10.354;-17.471;30.136;15.182;-3.793.334;44.026.903;-3.793.334;;;;
04_S11;04/05/2023;16:20:43.300;-0.0295;-0.0203;10.356;-13.123;30.594;21.133;-5.000.370;42.819.867;-5.000.370;;;;
04_S11;04/05/2023;16:20:43.400;-0.0332;-0.0188;10.422;-23.651;27.161;0.8545;-5.101.078;42.719.159;-5.101.078;;;;
04_S11;04/05/2023;16:20:43.500;-0.0303;-0.0146;10.378;-0.7553;22.354;0.8850;-5.101.078;42.719.159;-5.101.078;;;;
04_S11;04/05/2023;16:20:43.600;-0.0339;-0.0168;10.425;-0.9308;26.474;11.902;-5.671.757;42.148.481;-5.671.757;;;;
04_S11;04/05/2023;16:20:43.700;-0.0300;-0.0176;10.447;-13.428;22.583;0.8698;-5.714.083;42.106.154;-5.714.083;;;;
04_S11;04/05/2023;16:20:43.800;-0.0281;-0.0139;10.356;-12.741;22.583;10.300;-6.154.863;41.665.374;-6.154.863;;;;
04_S11;04/05/2023;16:20:43.900;-0.0637;-0.0200;10.127;-15.793;43.793;13.351;-10.228.428;37.591.809;-5.146.324;;;;
04_S11;04/05/2023;16:20:44.000;-0.1602;-0.0693;10.420;-0.0458;108.490;-38.528;-10.228.428;37.591.809;-5.146.324;Inactive;0;24.78;
04_S11;04/05/2023;16:20:44.100;0.0190;-0.0156;10.129;76.141;0.6409;-170.288;182.442;232.066;243.743;;;;
04_S11;04/05/2023;16:20:44.200;-0.0452;-0.0613;0.9265;30.289;22.812;-214.844;274.393;-55.462;122.601;;;;
04_S11;04/05/2023;16:20:44.300;-0.1213;-0.0588;10.164;-69.199;287.323;-373.001;267.095;-100.708;103.627;;;;
04_S11;04/05/2023;16:20:44.400;-0.2019;0.0146;11.890;-122.986;421.906;-429.306;267.095;-100.708;103.627;;;;
04_S11;04/05/2023;16:20:44.500;-0.1460;-0.0144;10.144;-0.2136;22.659;-317.459;268.555;-99.248;108.006;;;;
04_S11;04/05/2023;16:20:44.600;-0.1733;-0.0884;0.9536;-93.002;210.648;-324.860;252.500;-112.384;112.384;;;;
04_S11;04/05/2023;16:20:44.700;-0.2441;-0.0793;10.518;-196.075;250.702;-245.132;262.716;-110.925;105.087;;;;
04_S11;04/05/2023;16:20:44.800;-0.2236;-0.1252;10.181;-133.514;114.212;-106.735;277.312;-108.006;105.087;;;;
04_S11;04/05/2023;16:20:44.900;-0.2185;-0.1279;10.027;-120.544;85.907;-38.681;277.312;-108.006;105.087;;;;
04_S11;04/05/2023;16:20:45.000;0.0000;0.0000;0.0000;0.0000;0.0000;0.0000;0.0000;0.0000;0.0000;Inactive;;21;Power off command received.
