TagID;Date;Time;accX;accY;accZ;gyroX;gyroY;gyroZ;compX;compY;compZ;Activity;Depth;Temp. (?C);Metadata
04_S2;04/05/2023;16:59:14;-491;6631;-6763;-292816;-47607;-12817;-105087;-458294;-931184;Active;8.6728E+12;-36868;
04_S2;04/05/2023;16:59:14;-596;7485;-6443;-481873;-32043;-15488;-141575;-456835;-868424;;;;
04_S2;04/05/2023;16:59:14;-637;8003;-5735;-503387;-20599;33646;-170766;-459754;-865505;;;;
04_S2;04/05/2023;16:59:14;-547;8679;-5020;-576630;-1373;67444;-180982;-469971;-831936;;;;
04_S2;04/05/2023;16:59:14;-510;8792;-4658;-491791;45776;45090;-180982;-469971;-831936;;;;
04_S2;04/05/2023;16:59:14;-474;8906;-4294;-406952;93002;22736;-180982;-469971;-831936;;;;
04_S2;04/05/2023;16:59:15;-383;9077;-3730;-525742;160751;-44708;-195578;-464132;-802745;;;;
04_S2;04/05/2023;16:59:15;-593;9729;-2112;-679474;30670;9613;-207254;-478728;-750202;;;;
04_S2;04/05/2023;16:59:15;-254;10100;-1606;-515823;-12817;92163;-207254;-481647;-706415;;;;
04_S2;04/05/2023;16:59:15;-383;9412;-1367;-353165;-15259;55695;-213092;-469971;-691820;;;;
04_S2;04/05/2023;16:59:15;51;10420;-115;-446701;-58746;101547;-213092;-469971;-691820;Inactive;0;1934;
04_S2;04/05/2023;16:59:15;-264;9812;432;-389557;35400;-9537;-211633;-474349;-655332;;;;
04_S2;04/05/2023;16:59:15;88;10002;1362;-469971;-81482;98572;-198497;-484566;-621762;;;;
04_S2;04/05/2023;16:59:15;171;9963;1877;-301590;-29602;65765;-183902;-502080;-586733;;;;
04_S2;04/05/2023;16:59:15;571;10071;2427;-354309;-19608;118332;-180982;-502080;-589653;;;;
04_S2;04/05/2023;16:59:16;132;9568;3164;-531616;139618;-49286;-180982;-502080;-589653;;;;
04_S2;04/05/2023;16:59:16;205;9460;4104;-390854;56000;-49210;-175144;-496242;-522514;;;;
04_S2;04/05/2023;16:59:16;254;9219;4602;-430374;-71564;37231;-159089;-486025;-512297;;;;
04_S2;04/05/2023;16:59:16;107;8848;5730;-439377;136261;76370;-137196;-484566;-467052;;;;
04_S2;04/05/2023;16:59:16;591;8267;6013;-447159;-114059;136261;-112384;-506459;-459754;;;;
04_S2;04/05/2023;16:59:16;964;7798;6536;-531769;-144348;101852;-112384;-506459;-459754;Inactive;0;1934;
04_S2;04/05/2023;16:59:16;886;7009;7549;-654449;1678;71411;-97789;-521054;-418887;;;;
04_S2;04/05/2023;16:59:16;913;5940;8391;-786362;117874;40817;-37948;-519595;-399913;;;;
04_S2;04/05/2023;16:59:16;725;5535;8525;-295792;148773;47760;-17514;-507919;-364884;;;;
04_S2;04/05/2023;16:59:16;1455;4597;9778;-626068;-218201;49362;-17514;-507919;-364884;;;;
04_S2;04/05/2023;16:59:16;886;3647;9336;-527573;80795;85907;26272;-516676;-370722;;;;
04_S2;04/05/2023;16:59:17;916;3127;9856;-320511;108566;77362;61301;-516676;-356127;;;;
04_S2;04/05/2023;16:59:17;959;2598;10205;-410843;141220;96588;87572;-504999;-344450;;;;
04_S2;04/05/2023;16:59:17;730;1157;10298;-801697;126724;178146;144494;-500621;-328396;;;;
04_S2;04/05/2023;16:59:17;789;198;10327;-659103;-36163;172958;144494;-500621;-328396;;;;
04_S2;04/05/2023;16:59:17;764;-56;10393;-178299;-17624;-17700;202876;-506459;-337153;Inactive;0;1933;
04_S2;04/05/2023;16:59:17;1025;-1643;10095;-714264;-7858;-120163;210173;-513757;-347370;;;;
04_S2;04/05/2023;16:59:17;903;-1880;10144;-326080;42801;-55466;234985;-512297;-360505;;;;
04_S2;04/05/2023;16:59:17;933;-2451;10032;-292892;24643;-94604;259797;-519595;-359046;;;;
04_S2;04/05/2023;16:59:17;830;-3015;9878;-348358;44937;-25635;259797;-519595;-359046;;;;
04_S2;04/05/2023;16:59:17;813;-3894;9541;-521393;56076;14648;286069;-519595;-361965;;;;
04_S2;04/05/2023;16:59:18;745;-4534;9280;-504608;38757;15793;302124;-506459;-386777;;;;
04_S2;04/05/2023;16:59:18;593;-5198;8945;-302505;99792;48065;338612;-504999;-396994;;;;
04_S2;04/05/2023;16:59:18;361;-5391;8179;-614777;128708;33646;370722;-493323;-420346;;;;
04_S2;04/05/2023;16:59:18;403;-7793;6714;-1391754;32959;17242;370722;-493323;-420346;;;;
04_S2;04/05/2023;16:59:18;449;-8357;5903;-251160;-41656;3662;442239;-500621;-503540;Inactive;0;1935;
04_S2;04/05/2023;16:59:18;491;-8462;5488;-337677;19913;-992;433482;-503540;-532731;;;;
04_S2;04/05/2023;16:59:18;505;-8999;4695;-450211;43716;14420;450997;-494783;-553164;;;;
04_S2;04/05/2023;16:59:18;498;-9104;4290;-325241;-16632;-22430;450997;-494783;-553164;;;;
04_S2;04/05/2023;16:59:18;344;-9297;3623;-440063;60654;56305;453916;-500621;-599869;;;;
04_S2;04/05/2023;16:59:19;383;-9578;2935;-458832;115662;60883;472890;-493323;-615924;;;;
04_S2;04/05/2023;16:59:19;27;-9824;1919;-364532;73090;102768;456835;-474349;-643655;;;;
04_S2;04/05/2023;16:59:19;-76;-9617;1858;-221939;5875;57297;478728;-484566;-668467;;;;
04_S2;04/05/2023;16:59:19;-42;-9966;1277;-239639;8011;34485;478728;-484566;-668467;;;;
04_S2;04/05/2023;16:59:19;-22;-9868;1045;-202942;-21591;34790;472890;-469971;-680144;;;;
04_S2;04/05/2023;16:59:19;-125;-9954;620;-213242;-14191;22430;488945;-477268;-704956;Inactive;0;1935;
04_S2;04/05/2023;16:59:19;-168;-9963;520;-179977;-1144;25711;477268;-480187;-713713;;;;
04_S2;04/05/2023;16:59:19;-117;-9939;-247;-322952;11749;-36087;478728;-487485;-732687;;;;
04_S2;04/05/2023;16:59:19;42;-9854;-747;-380554;68359;-46997;478728;-487485;-732687;;;;
04_S2;04/05/2023;16:59:19;71;-9751;-1272;-261917;-7248;-31128;475809;-481647;-758959;;;;
04_S2;04/05/2023;16:59:19;112;-9712;-1521;-157166;10757;-10376;462673;-480187;-769175;;;;
04_S2;04/05/2023;16:59:20;46;-9692;-1980;-251694;16403;-5341;456835;-477268;-780852;;;;
04_S2;04/05/2023;16:59:20;156;-9619;-2449;-238113;46616;-17319;452456;-481647;-808583;;;;
04_S2;04/05/2023;16:59:20;208;-9517;-2695;-166016;12512;-7019;452456;-481647;-808583;;;;
04_S2;04/05/2023;16:59:20;259;-9431;-2903;-165176;89874;-17853;443699;-493323;-820259;;;;
04_S2;04/05/2023;16:59:20;271;-9312;-3044;-114746;24033;18463;439320;-474349;-818800;Inactive;0;1937;
04_S2;04/05/2023;16:59:20;190;-9229;-3381;-215683;27618;27313;442239;-477268;-836314;;;;
04_S2;04/05/2023;16:59:20;261;-9021;-3762;-198593;31891;19684;442239;-477268;-836314;;;;
04_S2;04/05/2023;16:59:20;188;-8962;-4055;-163574;102615;8545;426185;-487485;-849450;;;;
04_S2;04/05/2023;16:59:20;300;-8755;-4265;-228806;38605;8011;420346;-487485;-855288;;;;
04_S2;04/05/2023;16:59:20;232;-8572;-4678;-297089;-3738;11978;402832;-493323;-869883;;;;
04_S2;04/05/2023;16:59:21;203;-8303;-5210;-300293;-13275;22964;405751;-481647;-896155;;;;
04_S2;04/05/2023;16:59:21;205;-7942;-5615;-311050;-5646;20828;405751;-481647;-896155;;;;
04_S2;04/05/2023;16:59:21;59;-7715;-6079;-302429;2518;15869;380939;-488945;-906372;;;;
04_S2;04/05/2023;16:59:21;76;-7368;-6443;-267029;-26703;11215;366344;-486025;-932644;;;;
04_S2;04/05/2023;16:59:21;71;-7109;-6572;-198898;-12207;687;356127;-475809;-928265;Inactive;0;1938;
04_S2;04/05/2023;16:59:21;-22;-6951;-6907;-210190;-305;153;342991;-483106;-941401;;;;
04_S2;04/05/2023;16:59:21;68;-6663;-7109;-192337;8316;-2518;342991;-483106;-941401;;;;
04_S2;04/05/2023;16:59:21;24;-6414;-7363;-204391;22125;2136;329855;-490404;-966213;;;;
04_S2;04/05/2023;16:59:21;39;-6172;-7603;-166931;19302;2365;322557;-486025;-979349;;;;
04_S2;04/05/2023;16:59:22;71;-5984;-7637;-129700;12894;7248;316719;-483106;-973511;;;;
04_S2;04/05/2023;16:59:22;-12;-5825;-7908;-148468;24109;16327;312341;-481647;-977889;;;;
04_S2;04/05/2023;16:59:22;15;-5562;-8103;-179520;-1450;10834;312341;-481647;-977889;;;;
04_S2;04/05/2023;16:59:22;-10;-5398;-8059;-153732;2823;13123;300664;-487485;-983727;;;;
04_S2;04/05/2023;16:59:22;-112;-5129;-8354;-216064;-3281;11978;286069;-478728;-983727;;;;
04_S2;04/05/2023;16:59:22;-68;-4739;-8560;-191727;-11292;17624;262716;-472890;-995404;Inactive;0;194;
04_S2;04/05/2023;16:59:22;-134;-4507;-8650;-180054;59662;31052;251040;-469971;-1001242;;;;
04_S2;04/05/2023;16:59:22;-56;-4351;-8823;-157547;40894;15335;251040;-469971;-1001242;;;;
04_S2;04/05/2023;16:59:22;83;-4131;-8733;-85297;70267;22049;239364;-490404;-1004161;;;;
04_S2;04/05/2023;16:59:22;-129;-4067;-8481;-102310;-2136;-24643;248121;-490404;-1009999;;;;
04_S2;04/05/2023;16:59:23;81;-3755;-9058;-93307;60501;-26932;221849;-496242;-1007080;;;;
04_S2;04/05/2023;16:59:23;181;-3770;-9026;-123520;18768;-21362;233526;-496242;-1012918;;;;
04_S2;04/05/2023;16:59:23;190;-3494;-9241;-122147;-6409;7858;233526;-496242;-1012918;;;;
04_S2;04/05/2023;16:59:23;-7;-3215;-9255;-130463;-23804;7324;216011;-496242;-1004161;;;;
04_S2;04/05/2023;16:59:23;-24;-2908;-9387;-273972;-8545;-2899;210173;-475809;-1015837;;;;
04_S2;04/05/2023;16:59:23;-15;-2432;-9438;-304337;20905;9155;173685;-480187;-1017297;Inactive;0;1938;
04_S2;04/05/2023;16:59:23;68;-1863;-9614;-328445;54092;-7248;159089;-474349;-1023135;;;;
04_S2;04/05/2023;16:59:23;144;-1255;-9709;-343857;52109;-14191;159089;-474349;-1023135;;;;
04_S2;04/05/2023;16:59:23;32;-688;-9739;-381241;-27771;-34790;138656;-480187;-1014378;;;;
04_S2;04/05/2023;16:59:23;-63;-125;-9844;-256500;-49210;-34103;113844;-478728;-1021675;;;;
04_S2;04/05/2023;16:59:23;-198;498;-9683;-299835;-67368;-11520;99248;-490404;-1021675;;;;
04_S2;04/05/2023;16:59:24;-491;1428;-9866;-554123;-150375;1221;48165;-456835;-1017297;;;;
04_S2;04/05/2023;16:59:24;-317;1628;-9771;-187302;178146;118332;48165;-456835;-1017297;;;;
04_S2;04/05/2023;16:59:24;-68;2173;-9604;-340500;104904;67902;35029;-481647;-1012918;;;;
04_S2;04/05/2023;16:59:24;59;2664;-9465;-343704;30975;66223;11676;-487485;-1007080;;;;
04_S2;04/05/2023;16:59:24;15;3416;-9270;-441589;534;61874;-10217;-486025;-991025;Inactive;0;1942;
04_S2;04/05/2023;16:59:24;85;4170;-8860;-507355;1984;75531;-10217;-486025;-991025;;;;
04_S2;04/05/2023;16:59:24;61;4778;-8635;-383530;13351;28534;-35029;-493323;-969132;;;;
04_S2;04/05/2023;16:59:24;122;5298;-8413;-291748;37537;21439;-71517;-483106;-955996;;;;
04_S2;04/05/2023;16:59:24;100;5713;-8130;-294037;47836;18311;-72977;-481647;-934103;;;;
04_S2;04/05/2023;16:59:24;146;6130;-7798;-324173;15411;20218;-103627;-488945;-932644;;;;
04_S2;04/05/2023;16:59:25;176;6636;-7358;-385895;3357;38757;-103627;-488945;-932644;;;;
04_S2;04/05/2023;16:59:25;146;7361;-6672;-564804;-41046;5798;-108006;-490404;-907831;;;;
04_S2;04/05/2023;16:59:25;51;7708;-6299;-315399;6714;-4730;-134277;-490404;-884479;;;;
04_S2;04/05/2023;16:59:25;83;7949;-5969;-233765;-610;20981;-159089;-480187;-877181;;;;
04_S2;04/05/2023;16:59:25;95;8201;-5635;-230331;2213;36011;-157630;-490404;-858207;Inactive;0;1939;
04_S2;04/05/2023;16:59:25;127;8660;-5093;-411530;-16632;35095;-157630;-490404;-858207;;;;
04_S2;04/05/2023;16:59:25;120;8821;-4795;-235977;16937;25711;-173685;-494783;-827557;;;;
04_S2;04/05/2023;16:59:25;139;8926;-4404;-262604;93307;9232;-185361;-483106;-815881;;;;
04_S2;04/05/2023;16:59:25;330;9297;-3945;-231934;57907;8087;-185361;-488945;-792528;;;;
04_S2;04/05/2023;16:59:26;344;9460;-3066;-503464;56534;-33875;-198497;-516676;-756040;;;;
04_S2;04/05/2023;16:59:26;227;9807;-2500;-490875;68817;18616;-198497;-516676;-756040;;;;
04_S2;04/05/2023;16:59:26;386;10037;-2014;-290375;46005;39291;-195578;-502080;-712254;;;;
04_S2;04/05/2023;16:59:26;415;10046;-1323;-305099;7553;60959;-191199;-488945;-704956;;;;
04_S2;04/05/2023;16:59:26;654;10137;-781;-385056;11673;129929;-204335;-502080;-677225;;;;
04_S2;04/05/2023;16:59:26;964;10471;59;-393143;2060;99030;-186821;-516676;-656791;Inactive;0;1942;
04_S2;04/05/2023;16:59:26;588;9873;330;-271912;60959;-55695;-186821;-516676;-656791;;;;
04_S2;04/05/2023;16:59:26;564;10059;818;-270233;51117;-55847;-194118;-503540;-617384;;;;
04_S2;04/05/2023;16:59:26;493;10034;1653;-417252;11520;-9003;-192659;-496242;-604248;;;;
04_S2;04/05/2023;16:59:26;710;9880;2131;-363846;6866;54626;-195578;-510838;-583814;;;;
04_S2;04/05/2023;16:59:27;400;9849;3037;-539703;109863;24872;-169306;-510838;-537109;;;;
04_S2;04/05/2023;16:59:27;959;9441;3884;-358505;-36240;75607;-169306;-510838;-537109;;;;
04_S2;04/05/2023;16:59:27;754;9275;4192;-234604;53864;4044;-160549;-516676;-519595;;;;
04_S2;04/05/2023;16:59:27;798;9258;4431;-258026;-64545;30136;-135737;-506459;-500621;;;;
04_S2;04/05/2023;16:59:27;1060;8674;5029;-378647;-44861;36774;-131358;-513757;-490404;;;;
04_S2;04/05/2023;16:59:27;962;8645;5603;-372314;-57449;22583;-118222;-518135;-468511;Inactive;0;1942;
04_S2;04/05/2023;16:59:27;1030;8225;6172;-401001;46005;23499;-118222;-518135;-468511;;;;
04_S2;04/05/2023;16:59:27;1042;7842;6626;-283508;50507;15335;-102168;-525433;-446618;;;;
04_S2;04/05/2023;16:59:27;920;7634;6899;-233154;57755;-2289;-86113;-515216;-433482;;;;
04_S2;04/05/2023;16:59:27;972;7378;7148;-221863;23193;6256;-81734;-504999;-420346;;;;
04_S2;04/05/2023;16:59:27;913;7056;7473;-276794;64545;10529;-61301;-513757;-417427;;;;
04_S2;04/05/2023;16:59:28;833;6729;7849;-269241;71182;8240;-61301;-513757;-417427;;;;
04_S2;04/05/2023;16:59:28;747;6294;8232;-309906;93155;8011;-52543;-522514;-396994;;;;
04_S2;04/05/2023;16:59:28;686;5891;8472;-337524;51804;-7477;-24812;-512297;-380939;;;;
04_S2;04/05/2023;16:59:28;618;5366;8833;-340195;51422;-14648;-11676;-502080;-356127;;;;
04_S2;04/05/2023;16:59:28;569;4922;9119;-304565;34256;-9460;-11676;-502080;-356127;Inactive;0;1942;
04_S2;04/05/2023;16:59:28;518;4575;9214;-218124;28915;-2975;18974;-491864;-357586;;;;
04_S2;04/05/2023;16:59:28;527;4504;9185;-127716;-36926;1221;23353;-502080;-361965;;;;
04_S2;04/05/2023;16:59:28;1216;4331;10178;-87280;-119476;-43640;14595;-507919;-353208;;;;
04_S2;04/05/2023;16:59:28;562;4053;9478;-59204;86670;-4883;33569;-509378;-348829;;;;
04_S2;04/05/2023;16:59:28;671;4165;9644;-104370;86670;32654;33569;-509378;-348829;;;;
04_S2;04/05/2023;16:59:29;459;3564;9565;-290070;83084;24490;36488;-497702;-351748;;;;
04_S2;04/05/2023;16:59:29;488;2886;9946;-367889;15488;-26093;71517;-494783;-345910;;;;
04_S2;04/05/2023;16:59:29;586;2434;10139;-352325;-62103;-45242;90491;-507919;-338612;;;;
04_S2;04/05/2023;16:59:29;598;2029;10334;-169754;7095;-5875;106546;-503540;-337153;;;;
04_S2;04/05/2023;16:59:29;520;1733;10339;-205154;64087;71411;106546;-503540;-337153;Inactive;0;1944;
04_S2;04/05/2023;16:59:29;466;1348;10239;-336761;71945;86517;112384;-494783;-334234;;;;
04_S2;04/05/2023;16:59:29;554;918;10327;-265884;4654;39062;141575;-497702;-334234;;;;
04_S2;04/05/2023;16:59:29;703;569;10430;-155029;-49667;1450;150332;-509378;-334234;;;;
04_S2;04/05/2023;16:59:29;532;-269;10537;-428162;95139;-16861;175144;-499161;-332774;;;;
04_S2;04/05/2023;16:59:30;510;-317;10388;-130310;-17319;9079;175144;-499161;-332774;;;;
04_S2;04/05/2023;16:59:30;605;-842;10532;-232010;-105515;-5646;199956;-509378;-340072;;;;
04_S2;04/05/2023;16:59:30;913;-1321;10266;-302277;-42191;7782;210173;-510838;-329855;;;;
04_S2;04/05/2023;16:59:30;923;-1638;10195;-212250;-26016;-18158;230607;-510838;-350289;;;;
04_S2;04/05/2023;16:59:30;928;-1921;10178;-178070;29144;-5417;246662;-518135;-348829;;;;
04_S2;04/05/2023;16:59:30;918;-2212;10027;-210266;54932;-24948;246662;-518135;-348829;Inactive;0;1939;
04_S2;04/05/2023;16:59:30;779;-2600;9990;-225830;103302;-35095;243743;-512297;-351748;;;;
04_S2;04/05/2023;16:59:30;732;-3000;9983;-210571;42114;-61874;264176;-509378;-363424;;;;
04_S2;04/05/2023;16:59:30;645;-3213;9814;-208054;36316;-30289;284610;-503540;-369263;;;;
04_S2;04/05/2023;16:59:30;791;-3796;9673;-318451;-10605;-26703;277312;-513757;-367803;;;;
04_S2;04/05/2023;16:59:30;879;-4172;9377;-270615;-31738;-4654;277312;-513757;-367803;;;;
04_S2;04/05/2023;16:59:31;972;-4705;9170;-316620;-24261;4501;307962;-512297;-383858;;;;
04_S2;04/05/2023;16:59:31;994;-5151;8926;-309296;-28000;12512;321098;-507919;-402832;;;;
04_S2;04/05/2023;16:59:31;957;-5459;8738;-248642;10910;31662;338612;-513757;-414508;;;;
04_S2;04/05/2023;16:59:31;991;-6001;8330;-322876;32196;30060;357586;-518135;-439320;;;;
04_S2;04/05/2023;16:59:31;911;-6375;8032;-299377;8087;30136;357586;-518135;-439320;Inactive;0;1943;
04_S2;04/05/2023;16:59:31;894;-6763;7644;-327301;8926;41809;370722;-513757;-452456;;;;
04_S2;04/05/2023;16:59:31;901;-7058;7451;-231400;22659;32196;404291;-509378;-468511;;;;
04_S2;04/05/2023;16:59:31;862;-7375;7004;-314178;19226;-20218;411589;-510838;-475809;;;;
04_S2;04/05/2023;16:59:31;972;-8210;6116;-707397;11444;-39825;433482;-523973;-518135;;;;
04_S2;04/05/2023;16:59:32;945;-8621;5107;-594940;4120;15030;433482;-523973;-518135;;;;
04_S2;04/05/2023;16:59:32;964;-9060;4351;-525360;29907;33569;455375;-513757;-557543;;;;
04_S2;04/05/2023;16:59:32;930;-9185;3757;-433960;39444;-2365;448078;-512297;-588193;;;;
04_S2;04/05/2023;16:59:32;854;-9641;2507;-716782;-97427;42725;467052;-510838;-645115;;;;
04_S2;04/05/2023;16:59:32;959;-9958;1289;-626450;-156937;18005;467052;-510838;-645115;;;;
04_S2;04/05/2023;16:59:32;1050;-10217;605;-526581;-128174;56534;458294;-507919;-697658;Inactive;0;1942;
04_S2;04/05/2023;16:59:32;828;-10193;-554;-447006;54932;87128;464132;-496242;-726849;;;;
04_S2;04/05/2023;16:59:32;520;-9751;-757;-370865;75912;143967;462673;-500621;-757499;;;;
04_S2;04/05/2023;16:59:32;151;-9780;-1907;-344925;115204;131302;456835;-494783;-775014;;;;
04_S2;04/05/2023;16:59:32;66;-9629;-1938;-255814;21362;101318;456835;-494783;-775014;;;;
04_S2;04/05/2023;16:59:32;27;-9561;-2314;-162811;35248;74463;455375;-487485;-802745;;;;
04_S2;04/05/2023;16:59:33;78;-9399;-2068;-48065;38376;18692;468511;-483106;-804204;;;;
04_S2;04/05/2023;16:59:33;2;-9368;-2727;-278854;68741;-6332;433482;-471430;-818800;;;;
04_S2;04/05/2023;16:59:33;100;-9109;-3245;-285263;88120;-62943;432023;-490404;-823178;;;;
04_S2;04/05/2023;16:59:33;359;-9080;-3816;-339966;-22354;-59814;432023;-490404;-823178;;;;
04_S2;04/05/2023;16:59:33;242;-8945;-3972;-177536;1221;5341;421806;-488945;-853829;Inactive;0;1945;
04_S2;04/05/2023;16:59:33;178;-8787;-4458;-233154;-16785;13733;423265;-487485;-866964;;;;
04_S2;04/05/2023;16:59:33;264;-8499;-5120;-390625;16327;-1755;401372;-488945;-888857;;;;
04_S2;04/05/2023;16:59:33;105;-8206;-5374;-246811;4730;27161;388237;-484566;-887398;;;;
04_S2;04/05/2023;16:59:33;261;-8015;-5847;-236664;70038;5264;388237;-484566;-887398;;;;
04_S2;04/05/2023;16:59:33;383;-7703;-5999;-262833;125275;5417;379479;-490404;-910750;;;;
04_S2;04/05/2023;16:59:34;437;-7351;-6472;-278244;105743;-1144;359046;-504999;-913670;;;;
04_S2;04/05/2023;16:59:34;598;-7122;-6621;-266113;96359;6409;347370;-513757;-922427;;;;
04_S2;04/05/2023;16:59:34;623;-6851;-6892;-193405;81100;21820;344450;-510838;-934103;;;;
04_S2;04/05/2023;16:59:34;542;-6577;-7197;-179138;-30518;42648;344450;-510838;-934103;;;;
04_S2;04/05/2023;16:59:34;588;-6348;-7268;-178299;21667;30823;321098;-493323;-948698;Inactive;0;195;
04_S2;04/05/2023;16:59:34;449;-6084;-7419;-186462;-4196;4044;332774;-493323;-957456;;;;
04_S2;04/05/2023;16:59:34;376;-5920;-7795;-222702;-30060;-1526;307962;-500621;-961834;;;;
04_S2;04/05/2023;16:59:34;417;-5647;-7888;-164261;11063;26398;297745;-481647;-966213;;;;
04_S2;04/05/2023;16:59:34;361;-5515;-8188;-126572;41504;2823;297745;-481647;-966213;;;;
04_S2;04/05/2023;16:59:35;452;-5371;-8259;-46463;-26245;-45242;284610;-486025;-970591;;;;
04_S2;04/05/2023;16:59:35;376;-5310;-8201;-110703;-39978;-56229;281690;-497702;-985187;;;;
04_S2;04/05/2023;16:59:35;259;-5012;-8289;-136261;9079;-45166;271474;-484566;-992484;;;;
04_S2;04/05/2023;16:59:35;415;-4988;-7893;-144501;-10605;-53482;259797;-496242;-983727;;;;
04_S2;04/05/2023;16:59:35;442;-4580;-8708;-167389;19379;-30746;259797;-496242;-983727;;;;
04_S2;04/05/2023;16:59:35;405;-4321;-8845;-142746;-11978;-6104;252500;-491864;-991025;Inactive;0;1946;
04_S2;04/05/2023;16:59:35;391;-3923;-9009;-381165;21820;-4807;229147;-497702;-1005620;;;;
04_S2;04/05/2023;16:59:35;371;-3171;-9199;-476913;-17319;18387;202876;-486025;-1008539;;;;
04_S2;04/05/2023;16:59:35;315;-2278;-9504;-459671;36697;83694;159089;-497702;-1017297;;;;
04_S2;04/05/2023;16:59:35;159;-1621;-9634;-444031;-60196;84686;159089;-497702;-1017297;;;;
04_S2;04/05/2023;16:59:35;44;-1089;-9805;-304871;-58060;54169;145954;-478728;-1018756;;;;
04_S2;04/05/2023;16:59:36;22;-620;-9690;-209885;-21439;19150;138656;-471430;-1014378;;;;
04_S2;04/05/2023;16:59:36;17;-164;-9890;-310135;72632;-8850;106546;-480187;-1014378;;;;
04_S2;04/05/2023;16:59:36;90;139;-9890;-266418;46005;-43182;106546;-480187;-1014378;;;;
04_S2;04/05/2023;16:59:36;42;337;-9929;-49744;839;-50049;81734;-493323;-1007080;;;;
04_S2;04/05/2023;16:59:36;-46;913;-9666;-298233;-199738;-34561;84653;-481647;-1012918;Inactive;0;1947;
04_S2;04/05/2023;16:59:36;-259;1470;-9712;-329590;32806;66833;55462;-464132;-1009999;;;;
04_S2;04/05/2023;16:59:36;15;1897;-9465;-297394;104904;125046;26272;-484566;-1007080;;;;
04_S2;04/05/2023;16:59:36;90;2539;-9514;-345688;132370;81024;26272;-484566;-1007080;;;;
04_S2;04/05/2023;16:59:36;405;3223;-9238;-515594;105972;76141;7298;-491864;-1005620;;;;
04_S2;04/05/2023;16:59:36;542;4019;-9001;-364914;71945;37308;-14595;-504999;-974970;;;;
04_S2;04/05/2023;16:59:37;500;4370;-8804;-316544;58060;53177;-24812;-503540;-958915;;;;
04_S2;04/05/2023;16:59:37;564;4824;-8728;-229721;25940;19608;-55462;-513757;-957456;;;;
04_S2;04/05/2023;16:59:37;518;5293;-8335;-403976;58365;-79117;-55462;-513757;-957456;;;;
04_S2;04/05/2023;16:59:37;701;5886;-7939;-487671;37537;10910;-78815;-504999;-939941;;;;
04_S2;04/05/2023;16:59:37;735;6853;-7197;-540543;68054;94910;-103627;-497702;-923886;Inactive;0;1948;
04_S2;04/05/2023;16:59:37;798;7271;-6877;-400467;54703;49591;-122601;-519595;-890317;;;;
04_S2;04/05/2023;16:59:37;881;7686;-6409;-325089;24414;-4730;-137196;-507919;-861126;;;;
04_S2;04/05/2023;16:59:37;764;7820;-5864;-343399;3281;-31967;-137196;-507919;-861126;;;;
04_S2;04/05/2023;16:59:37;745;8494;-5322;-426788;-3967;-24338;-154711;-513757;-846531;;;;
04_S2;04/05/2023;16:59:38;591;8892;-4519;-489883;-10147;-81100;-175144;-510838;-814421;;;;
04_S2;04/05/2023;16:59:38;457;9258;-3799;-505142;32578;-53635;-182442;-509378;-775014;;;;
04_S2;04/05/2023;16:59:38;542;9355;-3386;-345764;19531;8240;-192659;-502080;-750202;;;;
04_S2;04/05/2023;16:59:38;454;9788;-2456;-519104;42038;24109;-192659;-502080;-750202;;;;
04_S2;04/05/2023;16:59:38;549;10042;-1467;-524750;41809;-30212;-192659;-504999;-718092;;;;
04_S2;04/05/2023;16:59:38;432;10078;-671;-486450;99030;-28992;-213092;-504999;-680144;Inactive;0;195;
04_S2;04/05/2023;16:59:38;530;10020;-34;-460281;59052;37460;-197037;-500621;-637817;;;;
04_S2;04/05/2023;16:59:38;500;10139;781;-389404;57068;-14267;-202876;-509378;-614465;;;;
04_S2;04/05/2023;16:59:38;557;9932;1770;-573502;-2136;49591;-202876;-509378;-614465;;;;
04_S2;04/05/2023;16:59:38;310;9968;2896;-669174;155182;-29907;-178063;-507919;-569219;;;;
04_S2;04/05/2023;16:59:38;474;9568;3789;-480194;90027;53787;-157630;-502080;-516676;;;;
04_S2;04/05/2023;16:59:39;730;9109;4421;-436249;-46310;81024;-159089;-509378;-503540;;;;
04_S2;04/05/2023;16:59:39;786;8784;5361;-578308;-33417;47760;-121141;-518135;-471430;;;;
04_S2;04/05/2023;16:59:39;842;7927;6284;-714111;25101;35019;-121141;-518135;-471430;;;;
04_S2;04/05/2023;16:59:39;959;7188;7217;-699692;-8850;-43793;-90491;-510838;-417427;;;;
04_S2;04/05/2023;16:59:39;439;6538;7952;-645218;107040;-98495;-52543;-490404;-388237;Inactive;0;1949;
04_S2;04/05/2023;16:59:39;449;5881;8433;-455627;54626;-30670;-24812;-500621;-357586;;;;
04_S2;04/05/2023;16:59:39;391;5386;8857;-330582;43564;-27161;0;-487485;-356127;;;;
04_S2;04/05/2023;16:59:39;371;4956;9014;-310822;-18005;-14343;0;-487485;-356127;;;;
04_S2;04/05/2023;16:59:39;618;4375;9583;-305176;-109482;3586;20434;-510838;-356127;;;;
04_S2;04/05/2023;16:59:39;728;4062;9409;-287399;-47760;10452;43786;-499161;-344450;;;;
04_S2;04/05/2023;16:59:40;815;3325;10039;-320129;-38528;5112;65679;-506459;-342991;;;;
04_S2;04/05/2023;16:59:40;891;3401;9807;-236206;65384;33646;65679;-506459;-342991;;;;
04_S2;04/05/2023;16:59:40;852;2891;10049;-150223;-24033;-29526;80274;-509378;-340072;;;;
04_S2;04/05/2023;16:59:40;454;2671;9832;-191956;19531;-58899;91951;-494783;-334234;;;;
04_S2;04/05/2023;16:59:40;1135;2261;10613;-197754;-26550;-20294;99248;-504999;-329855;Inactive;0;1953;
04_S2;04/05/2023;16:59:40;767;2180;10059;-84991;39368;-29449;102168;-516676;-338612;;;;
04_S2;04/05/2023;16:59:40;569;1951;9990;-51727;19836;-35934;102168;-516676;-338612;;;;
04_S2;04/05/2023;16:59:40;718;1992;10100;-50812;-12817;-9613;102168;-504999;-329855;;;;
04_S2;04/05/2023;16:59:40;869;1836;10222;-93765;8698;11063;119682;-504999;-329855;;;;
04_S2;04/05/2023;16:59:41;693;1655;10244;-92850;11597;-12207;124061;-515216;-331315;;;;
04_S2;04/05/2023;16:59:41;752;1636;10127;-32043;-4807;-21744;126980;-512297;-328396;;;;
04_S2;04/05/2023;16:59:41;808;1636;10225;-7324;-20981;-11215;126980;-512297;-328396;;;;
04_S2;04/05/2023;16:59:41;959;1702;10298;2747;-7706;6485;128439;-513757;-329855;;;;
04_S2;04/05/2023;16:59:41;1052;1729;10383;-4120;-3357;7172;121141;-518135;-325477;;;;
04_S2;04/05/2023;16:59:41;940;1714;10244;-6027;12589;-5569;121141;-509378;-319638;Inactive;0;1951;
04_S2;04/05/2023;16:59:41;1072;1631;10391;-4501;2823;7172;115303;-529812;-319638;;;;
04_S2;04/05/2023;16:59:41;1177;1787;10286;-7019;4120;10452;115303;-529812;-319638;;;;
04_S2;04/05/2023;16:59:41;588;1641;9983;-31815;16174;7095;108006;-513757;-326936;;;;
04_S2;04/05/2023;16:59:41;1211;1719;10430;-51117;-14191;63400;118222;-521054;-325477;;;;
04_S2;04/05/2023;16:59:42;1287;1616;10183;-37079;22964;55695;125520;-528352;-309422;;;;
04_S2;04/05/2023;16:59:42;1377;1455;10557;-55771;-992;21362;186821;-540028;-248121;;;;
04_S2;04/05/2023;16:59:42;1270;1353;10417;-41580;5646;-9918;186821;-540028;-248121;;;;
04_S2;04/05/2023;16:59:42;1160;1362;10320;-41199;40436;-20370;1034811;-547326;-135737;;;;
04_S2;04/05/2023;16:59:42;959;1216;10342;-52872;59891;-23193;6645267;2978913;-3057728;;;;TIMEMARK!
04_S2;04/05/2023;16:59:42;896;1191;10527;-72479;63324;-839;12457140;8268271;-27577933;Inactive;0;1951;
04_S2;04/05/2023;16:59:42;889;1089;10374;-37003;49210;8698;0;0;-47820238;;;;
04_S2;04/05/2023;16:59:42;923;1145;10400;1526;8621;5264;0;0;-47820238;;;;
04_S2;04/05/2023;16:59:42;1025;1179;10364;5341;-18997;10605;0;0;-47820238;;;;
04_S2;04/05/2023;16:59:42;1169;1235;10359;1373;-5112;9689;948698;948698;-46871539;;;;
04_S2;04/05/2023;16:59:42;918;1125;10256;-7172;18311;-4578;0;0;-47820238;;;;
04_S2;04/05/2023;16:59:43;1021;1162;10278;-3815;9308;5951;-1376342;1376342;-46443895;;;;
04_S2;04/05/2023;16:59:43;1013;1221;10291;-76;6866;5646;-1376342;1376342;-46443895;;;;
04_S2;04/05/2023;16:59:43;972;1245;10198;3815;9232;6027;-2759983;2759983;-45060255;;;;
04_S2;04/05/2023;16:59:43;1194;1267;10315;4349;-6256;3662;-62760;17072193;-30748045;;;;
04_S2;04/05/2023;16:59:43;989;1194;10186;-2441;6943;-1450;-385318;20719573;-27100664;Inactive;0;1952;
04_S2;04/05/2023;16:59:43;962;1094;10278;-9003;-7019;24109;7748677;21062564;-20385339;;;;
04_S2;04/05/2023;16:59:43;1772;1399;10635;22583;-26245;42801;7748677;21062564;-20385339;;;;
04_S2;04/05/2023;16:59:43;1365;1567;10139;21439;28076;-32272;357586;-342991;488945;;;;
04_S2;04/05/2023;16:59:43;779;1182;10405;-28076;35324;-55618;14595;-353208;-268555;;;;
04_S2;04/05/2023;16:59:43;906;1223;10208;-8087;45547;4730;4379;-331315;-328396;;;;
04_S2;04/05/2023;16:59:44;1233;1309;10339;-13504;23499;37308;4379;-331315;-328396;;;;
04_S2;04/05/2023;16:59:44;1331;1479;10310;-16174;-20065;305;4379;-348829;-331315;;;;
04_S2;04/05/2023;16:59:44;1316;1416;10146;-19302;-26016;-64926;-4379;-351748;-337153;;;;
04_S2;04/05/2023;16:59:44;1125;1184;10208;-27466;-7095;-55008;-7298;-342991;-342991;;;;
04_S2;04/05/2023;16:59:44;1301;1282;10249;-14954;1907;-12283;4379;-345910;-348829;Inactive;0;1952;
04_S2;04/05/2023;16:59:44;1409;1296;10320;-17014;14572;2441;4379;-345910;-348829;;;;
04_S2;04/05/2023;16:59:44;1379;1201;10347;-9308;18768;-7935;11676;-356127;-356127;;;;
04_S2;04/05/2023;16:59:44;1147;1143;10327;-11063;17014;-13428;-4379;-348829;-351748;;;;
04_S2;04/05/2023;16:59:44;1418;1235;10422;1602;13657;16098;7298;-342991;-348829;;;;
04_S2;04/05/2023;16:59:45;1309;1313;10281;-4654;24338;2518;1460;-351748;-360505;;;;
04_S2;04/05/2023;16:59:45;1230;1172;10371;-11520;21820;-2747;1460;-351748;-360505;;;;
04_S2;04/05/2023;16:59:45;1360;1289;10286;-1831;29907;12894;-1460;-348829;-354667;;;;
04_S2;04/05/2023;16:59:45;1211;1260;10349;-14420;19302;4807;5838;-359046;-356127;;;;
04_S2;04/05/2023;16:59:45;1257;1270;10237;-9232;17471;14191;11676;-341531;-350289;;;;
04_S2;04/05/2023;16:59:45;0;0;0;0;0;0;0;0;0;Inactive;;21;Power off command received.
