TagID,Date,Time,accX,accY,accZ,magX,magY,magZ,Temp. (?C),Metadata
2_S1,09/05/2023,09:39:17.000,-0.078,-0.047,1.032,-717.0,1788.0,403.5,25,
2_S1,09/05/2023,09:39:17.100,-0.078,-0.047,1.018,,,,,
2_S1,09/05/2023,09:39:17.200,-0.078,-0.034,1.041,,,,,
2_S1,09/05/2023,09:39:17.300,-0.067,-0.042,1.047,,,,,
2_S1,09/05/2023,09:39:17.400,-0.063,-0.047,1.038,,,,,
2_S1,09/05/2023,09:39:17.500,-0.070,-0.047,1.024,,,,,
2_S1,09/05/2023,09:39:17.600,-0.078,-0.047,1.016,,,,,
2_S1,09/05/2023,09:39:17.700,-0.073,-0.047,1.025,,,,,
2_S1,09/05/2023,09:39:17.800,-0.066,-0.047,1.044,,,,,
2_S1,09/05/2023,09:39:17.900,-0.078,-0.047,1.032,,,,,
2_S1,09/05/2023,09:39:18.000,-0.078,-0.031,1.016,-724.5,1803.0,403.5,,
2_S1,09/05/2023,09:39:18.100,-0.078,-0.031,1.016,,,,,
2_S1,09/05/2023,09:39:18.200,-0.063,-0.031,1.047,,,,,
2_S1,09/05/2023,09:39:18.300,-0.063,-0.047,1.047,,,,,
2_S1,09/05/2023,09:39:18.400,-0.078,-0.031,1.032,,,,,
2_S1,09/05/2023,09:39:18.500,-0.078,-0.047,1.016,,,,,
2_S1,09/05/2023,09:39:18.600,-0.063,-0.047,1.032,,,,,
2_S1,09/05/2023,09:39:18.700,-0.078,-0.031,1.047,,,,,
2_S1,09/05/2023,09:39:18.800,-0.078,-0.047,1.016,,,,,
2_S1,09/05/2023,09:39:18.900,-0.078,-0.047,1.032,,,,,
2_S1,09/05/2023,09:39:19.000,-0.078,-0.047,1.032,-714.0,1816.5,361.5,,
2_S1,09/05/2023,09:39:19.100,-0.063,-0.047,1.047,,,,,
2_S1,09/05/2023,09:39:19.200,-0.063,-0.047,1.032,,,,,
2_S1,09/05/2023,09:39:19.300,-0.078,-0.047,1.016,,,,,
2_S1,09/05/2023,09:39:19.400,-0.078,-0.031,1.016,,,,,
2_S1,09/05/2023,09:39:19.500,-0.078,-0.047,1.047,,,,,
2_S1,09/05/2023,09:39:19.600,-0.063,-0.031,1.032,,,,,
2_S1,09/05/2023,09:39:19.700,-0.078,-0.047,1.016,,,,,
2_S1,09/05/2023,09:39:19.800,-0.078,-0.047,1.000,,,,,
2_S1,09/05/2023,09:39:19.900,-0.063,-0.047,1.032,,,,,
2_S1,09/05/2023,09:39:20.000,-0.063,-0.047,1.016,-714.0,1795.5,400.5,,
2_S1,09/05/2023,09:39:20.100,-0.063,-0.031,1.032,,,,,
2_S1,09/05/2023,09:39:20.200,-0.078,-0.047,1.016,,,,,
2_S1,09/05/2023,09:39:20.300,-0.063,-0.031,1.016,,,,,
2_S1,09/05/2023,09:39:20.400,-0.094,-0.047,1.016,,,,,
2_S1,09/05/2023,09:39:20.500,-0.078,-0.031,1.047,,,,,
2_S1,09/05/2023,09:39:20.600,-0.078,-0.047,1.032,,,,,
2_S1,09/05/2023,09:39:20.700,-0.078,-0.047,1.016,,,,,
2_S1,09/05/2023,09:39:20.800,-0.078,-0.047,1.032,,,,,
2_S1,09/05/2023,09:39:20.900,-0.063,-0.031,1.032,,,,,
2_S1,09/05/2023,09:39:21.000,-0.078,-0.031,1.032,-733.5,1812.0,394.5,,
2_S1,09/05/2023,09:39:21.100,-0.078,-0.047,1.032,,,,,
2_S1,09/05/2023,09:39:21.200,-0.063,-0.047,1.016,,,,,
2_S1,09/05/2023,09:39:21.300,-0.063,-0.031,1.047,,,,,
2_S1,09/05/2023,09:39:21.400,-0.078,-0.047,1.032,,,,,
2_S1,09/05/2023,09:39:21.500,-0.078,-0.047,1.032,,,,,
2_S1,09/05/2023,09:39:21.600,-0.063,-0.047,1.032,,,,,
2_S1,09/05/2023,09:39:21.700,-0.078,-0.031,1.032,,,,,
2_S1,09/05/2023,09:39:21.800,-0.078,-0.047,1.047,,,,,
2_S1,09/05/2023,09:39:21.900,-0.063,-0.047,1.032,,,,,
2_S1,09/05/2023,09:39:22.000,-0.078,-0.047,1.016,-726.0,1807.5,370.5,,
2_S1,09/05/2023,09:39:22.100,-0.064,-0.047,1.016,,,,,
2_S1,09/05/2023,09:39:22.200,-0.075,-0.034,1.028,,,,,
2_S1,09/05/2023,09:39:22.300,-0.067,-0.042,1.053,,,,,
2_S1,09/05/2023,09:39:22.400,-0.072,-0.047,1.035,,,,,
2_S1,09/05/2023,09:39:22.500,-0.070,-0.047,1.024,,,,,
2_S1,09/05/2023,09:39:22.600,-0.069,-0.041,1.038,,,,,
2_S1,09/05/2023,09:39:22.700,-0.078,-0.036,1.043,,,,,
2_S1,09/05/2023,09:39:22.800,-0.078,-0.047,1.032,,,,,
2_S1,09/05/2023,09:39:22.900,-0.078,-0.047,1.032,,,,,
2_S1,09/05/2023,09:39:23.000,-0.063,-0.047,1.032,-742.5,1804.5,393.0,,
2_S1,09/05/2023,09:39:23.100,-0.063,-0.031,1.032,,,,,
2_S1,09/05/2023,09:39:23.200,-0.078,-0.047,1.047,,,,,
2_S1,09/05/2023,09:39:23.300,-0.078,-0.047,1.047,,,,,
2_S1,09/05/2023,09:39:23.400,-0.063,-0.047,1.016,,,,,
2_S1,09/05/2023,09:39:23.500,-0.078,-0.047,1.016,,,,,
2_S1,09/05/2023,09:39:23.600,-0.078,-0.031,1.032,,,,,
2_S1,09/05/2023,09:39:23.700,-0.078,-0.031,1.078,,,,,
2_S1,09/05/2023,09:39:23.800,-0.063,-0.031,1.032,,,,,
2_S1,09/05/2023,09:39:23.900,-0.094,-0.047,1.032,,,,,
2_S1,09/05/2023,09:39:24.000,-0.063,-0.031,1.016,-714.0,1807.5,384.0,,
2_S1,09/05/2023,09:39:24.100,-0.063,-0.016,1.047,,,,,
2_S1,09/05/2023,09:39:24.200,-0.063,-0.047,1.032,,,,,
2_S1,09/05/2023,09:39:24.300,-0.063,-0.031,1.032,,,,,
2_S1,09/05/2023,09:39:24.400,-0.078,-0.031,1.032,,,,,
2_S1,09/05/2023,09:39:24.500,-0.078,-0.031,1.047,,,,,
2_S1,09/05/2023,09:39:24.600,-0.078,-0.031,1.032,,,,,
2_S1,09/05/2023,09:39:24.700,-0.078,-0.047,1.032,,,,,
2_S1,09/05/2023,09:39:24.800,-0.078,-0.031,1.016,,,,,
2_S1,09/05/2023,09:39:24.900,-0.078,-0.031,1.047,,,,,
2_S1,09/05/2023,09:39:25.000,-0.063,-0.047,1.047,-730.5,1795.5,363.0,,
2_S1,09/05/2023,09:39:25.100,-0.078,-0.047,1.032,,,,,
2_S1,09/05/2023,09:39:25.200,-0.078,-0.031,1.016,,,,,
2_S1,09/05/2023,09:39:25.300,-0.078,-0.047,1.032,,,,,
2_S1,09/05/2023,09:39:25.400,-0.078,-0.047,1.032,,,,,
2_S1,09/05/2023,09:39:25.500,-0.063,-0.047,1.032,,,,,
2_S1,09/05/2023,09:39:25.600,-0.063,-0.047,1.016,,,,,
2_S1,09/05/2023,09:39:25.700,-0.078,-0.047,1.000,,,,,
2_S1,09/05/2023,09:39:25.800,-0.078,-0.047,1.016,,,,,
2_S1,09/05/2023,09:39:25.900,-0.063,-0.016,1.047,,,,,
2_S1,09/05/2023,09:39:26.000,-0.078,-0.031,1.032,-736.5,1798.5,384.0,,
2_S1,09/05/2023,09:39:26.100,-0.078,-0.047,1.016,,,,,
2_S1,09/05/2023,09:39:26.200,-0.078,-0.031,1.032,,,,,
2_S1,09/05/2023,09:39:26.300,-0.063,-0.047,1.016,,,,,
2_S1,09/05/2023,09:39:26.400,-0.078,-0.031,1.032,,,,,
2_S1,09/05/2023,09:39:26.500,-0.078,-0.031,1.016,,,,,
2_S1,09/05/2023,09:39:26.600,-0.078,-0.047,1.016,,,,,
2_S1,09/05/2023,09:39:26.700,-0.063,-0.031,1.047,,,,,
2_S1,09/05/2023,09:39:26.800,-0.078,-0.031,1.032,,,,,
2_S1,09/05/2023,09:39:26.900,-0.078,-0.031,1.032,,,,,
2_S1,09/05/2023,09:39:27.000,-0.078,-0.047,1.000,-718.5,1801.5,379.5,,
2_S1,09/05/2023,09:39:27.100,-0.078,-0.047,1.014,,,,,
2_S1,09/05/2023,09:39:27.200,-0.066,-0.034,1.053,,,,,
2_S1,09/05/2023,09:39:27.300,-0.073,-0.042,1.052,,,,,
2_S1,09/05/2023,09:39:27.400,-0.078,-0.047,1.028,,,,,
2_S1,09/05/2023,09:39:27.500,-0.070,-0.039,1.016,,,,,
2_S1,09/05/2023,09:39:27.600,-0.063,-0.038,1.022,,,,,
2_S1,09/05/2023,09:39:27.700,-0.063,-0.047,1.027,,,,,
2_S1,09/05/2023,09:39:27.800,-0.063,-0.047,1.019,,,,,
2_S1,09/05/2023,09:39:27.900,-0.063,-0.047,1.032,,,,,
2_S1,09/05/2023,09:39:28.000,-0.063,-0.031,1.016,-714.0,1807.5,387.0,,
2_S1,09/05/2023,09:39:28.100,-0.078,-0.047,1.032,,,,,
2_S1,09/05/2023,09:39:28.200,-0.078,-0.047,1.047,,,,,
2_S1,09/05/2023,09:39:28.300,-0.078,-0.031,1.032,,,,,
2_S1,09/05/2023,09:39:28.400,-0.063,-0.031,1.016,,,,,
2_S1,09/05/2023,09:39:28.500,-0.078,-0.031,1.016,,,,,
2_S1,09/05/2023,09:39:28.600,-0.063,-0.031,1.032,,,,,
2_S1,09/05/2023,09:39:28.700,-0.063,-0.031,1.047,,,,,
2_S1,09/05/2023,09:39:28.800,-0.063,-0.047,1.032,,,,,
2_S1,09/05/2023,09:39:28.900,-0.078,-0.047,1.032,,,,,
2_S1,09/05/2023,09:39:29.000,-0.078,-0.031,1.032,-718.5,1812.0,393.0,,
2_S1,09/05/2023,09:39:29.100,-0.063,-0.047,1.032,,,,,
2_S1,09/05/2023,09:39:29.200,-0.078,-0.031,1.032,,,,,
2_S1,09/05/2023,09:39:29.300,-0.078,-0.047,1.000,,,,,
2_S1,09/05/2023,09:39:29.400,-0.078,-0.047,1.016,,,,,
2_S1,09/05/2023,09:39:29.500,-0.063,-0.047,1.047,,,,,
2_S1,09/05/2023,09:39:29.600,-0.078,-0.031,1.032,,,,,
2_S1,09/05/2023,09:39:29.700,-0.063,-0.047,1.016,,,,,
2_S1,09/05/2023,09:39:29.800,-0.078,-0.047,1.016,,,,,
2_S1,09/05/2023,09:39:29.900,-0.063,-0.031,1.047,,,,,
2_S1,09/05/2023,09:39:30.000,-0.063,-0.031,1.032,-729.0,1809.0,378.0,,
2_S1,09/05/2023,09:39:30.100,-0.063,-0.047,1.016,,,,,
2_S1,09/05/2023,09:39:30.200,-0.078,-0.063,1.016,,,,,
2_S1,09/05/2023,09:39:30.300,-0.078,-0.031,1.016,,,,,
2_S1,09/05/2023,09:39:30.400,-0.078,-0.047,1.032,,,,,
2_S1,09/05/2023,09:39:30.500,-0.063,-0.047,1.032,,,,,
2_S1,09/05/2023,09:39:30.600,-0.078,-0.031,1.016,,,,,
2_S1,09/05/2023,09:39:30.700,-0.078,-0.031,1.016,,,,,
2_S1,09/05/2023,09:39:30.800,-0.078,-0.047,1.032,,,,,
2_S1,09/05/2023,09:39:30.900,-0.063,-0.031,1.032,,,,,
2_S1,09/05/2023,09:39:31.000,-0.078,-0.047,1.016,-721.5,1798.5,372.0,,
2_S1,09/05/2023,09:39:31.100,-0.063,-0.047,1.032,,,,,
2_S1,09/05/2023,09:39:31.200,-0.078,-0.047,1.032,,,,,
2_S1,09/05/2023,09:39:31.300,-0.078,-0.047,1.032,,,,,
2_S1,09/05/2023,09:39:31.400,-0.063,-0.031,1.032,,,,,
2_S1,09/05/2023,09:39:31.500,-0.078,-0.047,1.000,,,,,
2_S1,09/05/2023,09:39:31.600,-0.078,-0.031,1.032,,,,,
2_S1,09/05/2023,09:39:31.700,-0.063,-0.031,1.047,,,,,
2_S1,09/05/2023,09:39:31.800,-0.078,-0.047,1.016,,,,,
2_S1,09/05/2023,09:39:31.900,-0.078,-0.031,1.032,,,,,
2_S1,09/05/2023,09:39:32.000,-0.063,-0.031,1.000,-733.5,1803.0,382.5,,
2_S1,09/05/2023,09:39:32.100,-0.063,-0.031,1.028,,,,,
2_S1,09/05/2023,09:39:32.200,-0.063,-0.031,1.032,,,,,
2_S1,09/05/2023,09:39:32.300,-0.073,-0.031,1.043,,,,,
2_S1,09/05/2023,09:39:32.400,-0.078,-0.041,1.038,,,,,
2_S1,09/05/2023,09:39:32.500,-0.078,-0.039,1.032,,,,,
2_S1,09/05/2023,09:39:32.600,-0.072,-0.031,1.038,,,,,
2_S1,09/05/2023,09:39:32.700,-0.063,-0.031,1.043,,,,,
2_S1,09/05/2023,09:39:32.800,-0.066,-0.034,1.028,,,,,
2_S1,09/05/2023,09:39:32.900,-0.078,-0.047,1.016,,,,,
2_S1,09/05/2023,09:39:33.000,-0.078,-0.031,1.016,-724.5,1807.5,373.5,,
2_S1,09/05/2023,09:39:33.100,-0.094,-0.031,1.032,,,,,
2_S1,09/05/2023,09:39:33.200,-0.063,-0.031,1.032,,,,,
2_S1,09/05/2023,09:39:33.300,-0.063,-0.031,1.016,,,,,
2_S1,09/05/2023,09:39:33.400,-0.078,-0.047,1.032,,,,,
2_S1,09/05/2023,09:39:33.500,-0.063,-0.047,1.016,,,,,
2_S1,09/05/2023,09:39:33.600,-0.078,-0.047,1.047,,,,,
2_S1,09/05/2023,09:39:33.700,-0.078,-0.031,1.032,,,,,
2_S1,09/05/2023,09:39:33.800,-0.078,-0.047,1.016,,,,,
2_S1,09/05/2023,09:39:33.900,-0.063,-0.047,1.032,,,,,
2_S1,09/05/2023,09:39:34.000,-0.078,-0.031,1.047,-724.5,1800.0,367.5,,
2_S1,09/05/2023,09:39:34.100,-0.078,-0.047,1.047,,,,,
2_S1,09/05/2023,09:39:34.200,-0.063,-0.047,1.016,,,,,
2_S1,09/05/2023,09:39:34.300,-0.078,-0.047,1.016,,,,,
2_S1,09/05/2023,09:39:34.400,-0.078,-0.047,1.032,,,,,
2_S1,09/05/2023,09:39:34.500,-0.063,-0.031,1.032,,,,,
2_S1,09/05/2023,09:39:34.600,-0.078,-0.047,1.032,,,,,
2_S1,09/05/2023,09:39:34.700,-0.094,-0.031,1.032,,,,,
2_S1,09/05/2023,09:39:34.800,-0.078,-0.047,1.032,,,,,
2_S1,09/05/2023,09:39:34.900,-0.078,-0.031,1.032,,,,,
2_S1,09/05/2023,09:39:35.000,-0.063,-0.047,1.047,-724.5,1797.0,411.0,,
2_S1,09/05/2023,09:39:35.100,-0.078,-0.047,1.032,,,,,
2_S1,09/05/2023,09:39:35.200,-0.078,-0.031,1.000,,,,,
2_S1,09/05/2023,09:39:35.300,-0.078,-0.031,1.032,,,,,
2_S1,09/05/2023,09:39:35.400,-0.078,-0.031,1.047,,,,,
2_S1,09/05/2023,09:39:35.500,-0.078,-0.063,1.016,,,,,
2_S1,09/05/2023,09:39:35.600,-0.063,-0.047,1.016,,,,,
2_S1,09/05/2023,09:39:35.700,-0.078,-0.031,1.032,,,,,
2_S1,09/05/2023,09:39:35.800,-0.078,-0.047,1.032,,,,,
2_S1,09/05/2023,09:39:35.900,-0.078,-0.047,1.047,,,,,
2_S1,09/05/2023,09:39:36.000,-0.063,-0.047,1.016,-723.0,1794.0,375.0,,
2_S1,09/05/2023,09:39:36.100,-0.063,-0.031,1.016,,,,,
2_S1,09/05/2023,09:39:36.200,-0.063,-0.047,1.047,,,,,
2_S1,09/05/2023,09:39:36.300,-0.063,-0.031,1.063,,,,,
2_S1,09/05/2023,09:39:36.400,-0.078,-0.047,1.032,,,,,
2_S1,09/05/2023,09:39:36.500,-0.063,-0.031,1.000,,,,,
2_S1,09/05/2023,09:39:36.600,-0.078,-0.047,1.047,,,,,
2_S1,09/05/2023,09:39:36.700,-0.078,-0.047,1.047,,,,,
2_S1,09/05/2023,09:39:36.800,-0.078,-0.047,1.032,,,,,
2_S1,09/05/2023,09:39:36.900,-0.078,-0.063,1.000,,,,,
2_S1,09/05/2023,09:39:37.000,-0.063,-0.031,1.016,-720.0,1803.0,361.5,,
2_S1,09/05/2023,09:39:37.100,-0.078,-0.031,1.047,,,,,
2_S1,09/05/2023,09:39:37.200,-0.078,-0.047,1.032,,,,,
2_S1,09/05/2023,09:39:37.300,-0.078,-0.047,1.000,,,,,
2_S1,09/05/2023,09:39:37.400,-0.078,-0.047,1.032,,,,,
2_S1,09/05/2023,09:39:37.500,-0.094,-0.031,1.047,,,,,
2_S1,09/05/2023,09:39:37.600,-0.078,-0.047,1.047,,,,,
2_S1,09/05/2023,09:39:37.700,-0.078,-0.047,1.032,,,,,
2_S1,09/05/2023,09:39:37.800,-0.063,-0.047,1.016,,,,,
2_S1,09/05/2023,09:39:37.900,-0.078,-0.047,1.032,,,,,
2_S1,09/05/2023,09:39:38.000,-0.063,-0.047,1.047,-727.5,1801.5,373.5,,
2_S1,09/05/2023,09:39:38.100,-0.063,-0.033,1.033,,,,,
2_S1,09/05/2023,09:39:38.200,-0.075,-0.044,1.032,,,,,
2_S1,09/05/2023,09:39:38.300,-0.078,-0.036,1.043,,,,,
2_S1,09/05/2023,09:39:38.400,-0.078,-0.031,1.047,,,,,
2_S1,09/05/2023,09:39:38.500,-0.078,-0.039,1.047,,,,,
2_S1,09/05/2023,09:39:38.600,-0.078,-0.041,1.035,,,,,
2_S1,09/05/2023,09:39:38.700,-0.078,-0.036,1.021,,,,,
2_S1,09/05/2023,09:39:38.800,-0.075,-0.044,1.035,,,,,
2_S1,09/05/2023,09:39:38.900,-0.063,-0.031,1.047,,,,,
2_S1,09/05/2023,09:39:39.000,-0.063,-0.031,1.032,-724.5,1798.5,370.5,,
2_S1,09/05/2023,09:39:39.100,-0.078,-0.047,1.047,,,,,
2_S1,09/05/2023,09:39:39.200,-0.063,-0.047,1.016,,,,,
2_S1,09/05/2023,09:39:39.300,-0.078,-0.047,1.016,,,,,
2_S1,09/05/2023,09:39:39.400,-0.078,-0.031,1.047,,,,,
2_S1,09/05/2023,09:39:39.500,-0.063,-0.031,1.047,,,,,
2_S1,09/05/2023,09:39:39.600,-0.078,-0.047,1.016,,,,,
2_S1,09/05/2023,09:39:39.700,-0.063,-0.031,1.016,,,,,
2_S1,09/05/2023,09:39:39.800,-0.063,-0.047,1.032,,,,,
2_S1,09/05/2023,09:39:39.900,-0.078,-0.047,1.047,,,,,
2_S1,09/05/2023,09:39:40.000,-0.078,-0.031,1.032,-736.5,1801.5,388.5,,
2_S1,09/05/2023,09:39:40.100,-0.078,-0.031,1.016,,,,,
2_S1,09/05/2023,09:39:40.200,-0.078,-0.031,1.016,,,,,
2_S1,09/05/2023,09:39:40.300,-0.078,-0.031,1.047,,,,,
2_S1,09/05/2023,09:39:40.400,-0.078,-0.047,1.047,,,,,
2_S1,09/05/2023,09:39:40.500,-0.078,-0.047,1.000,,,,,
2_S1,09/05/2023,09:39:40.600,-0.063,-0.031,1.032,,,,,
2_S1,09/05/2023,09:39:40.700,-0.063,-0.031,1.032,,,,,
2_S1,09/05/2023,09:39:40.800,-0.078,-0.047,1.047,,,,,
2_S1,09/05/2023,09:39:40.900,-0.078,-0.047,1.016,,,,,
2_S1,09/05/2023,09:39:41.000,-0.078,-0.031,1.016,-723.0,1797.0,363.0,,
2_S1,09/05/2023,09:39:41.100,-0.078,-0.031,1.032,,,,,
2_S1,09/05/2023,09:39:41.200,-0.078,-0.031,1.032,,,,,
2_S1,09/05/2023,09:39:41.300,-0.063,-0.047,1.016,,,,,
2_S1,09/05/2023,09:39:41.400,-0.063,-0.047,1.032,,,,,
2_S1,09/05/2023,09:39:41.500,-0.063,-0.047,1.032,,,,,
2_S1,09/05/2023,09:39:41.600,-0.063,-0.047,1.032,,,,,
2_S1,09/05/2023,09:39:41.700,-0.063,-0.031,1.047,,,,,
2_S1,09/05/2023,09:39:41.800,-0.078,-0.047,1.032,,,,,
2_S1,09/05/2023,09:39:41.900,-0.078,-0.047,1.032,,,,,
2_S1,09/05/2023,09:39:42.000,-0.078,-0.047,1.032,-729.0,1798.5,385.5,,
2_S1,09/05/2023,09:39:42.100,-0.063,-0.031,1.047,,,,,
2_S1,09/05/2023,09:39:42.200,-0.063,-0.031,1.016,,,,,
2_S1,09/05/2023,09:39:42.300,-0.078,-0.031,1.016,,,,,
2_S1,09/05/2023,09:39:42.400,-0.063,-0.031,1.032,,,,,
2_S1,09/05/2023,09:39:42.500,-0.078,-0.047,1.063,,,,,
2_S1,09/05/2023,09:39:42.600,-0.063,-0.031,1.047,,,,,
2_S1,09/05/2023,09:39:42.700,-0.078,-0.047,1.016,,,,,
2_S1,09/05/2023,09:39:42.800,-0.078,-0.031,1.016,,,,,
2_S1,09/05/2023,09:39:42.900,-0.078,-0.047,1.032,,,,,
2_S1,09/05/2023,09:39:43.000,-0.078,-0.031,1.047,-735.0,1824.0,384.0,,
2_S1,09/05/2023,09:39:43.100,-0.078,-0.031,1.033,,,,,
2_S1,09/05/2023,09:39:43.200,-0.066,-0.031,1.032,,,,,
2_S1,09/05/2023,09:39:43.300,-0.063,-0.031,1.043,,,,,
2_S1,09/05/2023,09:39:43.400,-0.072,-0.041,1.057,,,,,
2_S1,09/05/2023,09:39:43.500,-0.070,-0.047,1.047,,,,,
2_S1,09/05/2023,09:39:43.600,-0.063,-0.041,1.019,,,,,
2_S1,09/05/2023,09:39:43.700,-0.067,-0.031,1.010,,,,,
2_S1,09/05/2023,09:39:43.800,-0.075,-0.031,1.035,,,,,
2_S1,09/05/2023,09:39:43.900,-0.063,-0.031,1.047,,,,,
2_S1,09/05/2023,09:39:44.000,-0.063,-0.031,1.047,-703.5,1806.0,384.0,,
2_S1,09/05/2023,09:39:44.100,-0.078,-0.031,1.016,,,,,
2_S1,09/05/2023,09:39:44.200,-0.063,-0.047,1.016,,,,,
2_S1,09/05/2023,09:39:44.300,-0.078,-0.047,1.032,,,,,
2_S1,09/05/2023,09:39:44.400,-0.078,-0.047,1.032,,,,,
2_S1,09/05/2023,09:39:44.500,-0.078,-0.047,1.016,,,,,
2_S1,09/05/2023,09:39:44.600,-0.063,-0.031,1.016,,,,,
2_S1,09/05/2023,09:39:44.700,-0.063,-0.031,1.032,,,,,
2_S1,09/05/2023,09:39:44.800,-0.078,-0.047,1.032,,,,,
2_S1,09/05/2023,09:39:44.900,-0.063,-0.031,1.032,,,,,
2_S1,09/05/2023,09:39:45.000,-0.063,-0.047,1.016,-717.0,1800.0,402.0,,
2_S1,09/05/2023,09:39:45.100,-0.063,-0.031,1.016,,,,,
2_S1,09/05/2023,09:39:45.200,-0.078,-0.031,1.047,,,,,
2_S1,09/05/2023,09:39:45.300,-0.078,-0.047,1.032,,,,,
2_S1,09/05/2023,09:39:45.400,-0.063,-0.047,1.047,,,,,
2_S1,09/05/2023,09:39:45.500,-0.063,-0.031,1.016,,,,,
2_S1,09/05/2023,09:39:45.600,-0.063,-0.047,1.063,,,,,
2_S1,09/05/2023,09:39:45.700,-0.078,-0.016,1.047,,,,,
2_S1,09/05/2023,09:39:45.800,-0.078,-0.047,1.016,,,,,
2_S1,09/05/2023,09:39:45.900,-0.063,-0.047,1.032,,,,,
2_S1,09/05/2023,09:39:46.000,-0.063,-0.031,1.032,-724.5,1813.5,364.5,,
2_S1,09/05/2023,09:39:46.100,-0.063,-0.031,1.032,,,,,
2_S1,09/05/2023,09:39:46.200,-0.078,-0.047,1.032,,,,,
2_S1,09/05/2023,09:39:46.300,-0.063,-0.031,1.016,,,,,
2_S1,09/05/2023,09:39:46.400,-0.078,-0.031,1.016,,,,,
2_S1,09/05/2023,09:39:46.500,-0.078,-0.047,1.032,,,,,
2_S1,09/05/2023,09:39:46.600,-0.078,-0.047,1.032,,,,,
2_S1,09/05/2023,09:39:46.700,-0.078,-0.031,1.032,,,,,
2_S1,09/05/2023,09:39:46.800,-0.063,-0.047,1.032,,,,,
2_S1,09/05/2023,09:39:46.900,-0.078,-0.031,1.032,,,,,
2_S1,09/05/2023,09:39:47.000,-0.063,-0.031,1.047,-717.0,1789.5,366.0,,
2_S1,09/05/2023,09:39:47.100,-0.047,-0.031,1.016,,,,,
2_S1,09/05/2023,09:39:47.200,-0.078,-0.047,1.032,,,,,
2_S1,09/05/2023,09:39:47.300,-0.078,-0.031,1.032,,,,,
2_S1,09/05/2023,09:39:47.400,-0.063,-0.016,1.032,,,,,
2_S1,09/05/2023,09:39:47.500,-0.078,-0.031,1.032,,,,,
2_S1,09/05/2023,09:39:47.600,-0.078,-0.047,1.032,,,,,
2_S1,09/05/2023,09:39:47.700,-0.078,-0.031,1.016,,,,,
2_S1,09/05/2023,09:39:47.800,-0.063,-0.047,1.032,,,,,
2_S1,09/05/2023,09:39:47.900,-0.063,-0.031,1.032,,,,,
2_S1,09/05/2023,09:39:48.000,-0.063,-0.031,1.047,-729.0,1800.0,367.5,,
2_S1,09/05/2023,09:39:48.100,-0.078,-0.047,1.016,,,,,
2_S1,09/05/2023,09:39:48.200,-0.078,-0.031,1.032,,,,,
2_S1,09/05/2023,09:39:48.300,-0.094,-0.031,1.047,,,,,
2_S1,09/05/2023,09:39:48.400,-0.063,-0.047,1.032,,,,,
2_S1,09/05/2023,09:39:48.500,-0.078,-0.031,1.016,,,,,
2_S1,09/05/2023,09:39:48.600,-0.078,-0.047,1.016,,,,,
2_S1,09/05/2023,09:39:48.700,-0.063,-0.047,1.047,,,,,
2_S1,09/05/2023,09:39:48.800,-0.063,-0.063,1.032,,,,,
2_S1,09/05/2023,09:39:48.900,-0.078,-0.047,1.032,,,,,
2_S1,09/05/2023,09:39:49.000,-0.078,-0.031,1.032,-726.0,1801.5,378.0,,
2_S1,09/05/2023,09:39:49.100,-0.078,-0.045,1.032,,,,,
2_S1,09/05/2023,09:39:49.200,-0.078,-0.047,1.032,,,,,
2_S1,09/05/2023,09:39:49.300,-0.067,-0.047,1.043,,,,,
2_S1,09/05/2023,09:39:49.400,-0.072,-0.047,1.038,,,,,
2_S1,09/05/2023,09:39:49.500,-0.078,-0.039,1.024,,,,,
2_S1,09/05/2023,09:39:49.600,-0.072,-0.038,1.022,,,,,
2_S1,09/05/2023,09:39:49.700,-0.067,-0.047,1.032,,,,,
2_S1,09/05/2023,09:39:49.800,-0.078,-0.044,1.028,,,,,
2_S1,09/05/2023,09:39:49.900,-0.078,-0.031,1.016,,,,,
2_S1,09/05/2023,09:39:50.000,-0.063,-0.047,1.016,-736.5,1791.0,357.0,,
2_S1,09/05/2023,09:39:50.100,-0.078,-0.031,1.032,,,,,
2_S1,09/05/2023,09:39:50.200,-0.063,-0.031,1.032,,,,,
2_S1,09/05/2023,09:39:50.300,-0.063,-0.047,1.032,,,,,
2_S1,09/05/2023,09:39:50.400,-0.063,-0.047,1.016,,,,,
2_S1,09/05/2023,09:39:50.500,-0.063,-0.047,1.032,,,,,
2_S1,09/05/2023,09:39:50.600,-0.063,-0.031,1.047,,,,,
2_S1,09/05/2023,09:39:50.700,-0.063,-0.031,1.032,,,,,
2_S1,09/05/2023,09:39:50.800,-0.078,-0.031,1.032,,,,,
2_S1,09/05/2023,09:39:50.900,-0.078,-0.047,1.032,,,,,
2_S1,09/05/2023,09:39:51.000,-0.078,-0.031,1.032,-714.0,1792.5,387.0,,
2_S1,09/05/2023,09:39:51.100,-0.063,-0.031,1.032,,,,,
2_S1,09/05/2023,09:39:51.200,-0.063,-0.016,1.016,,,,,
2_S1,09/05/2023,09:39:51.300,-0.078,-0.047,1.016,,,,,
2_S1,09/05/2023,09:39:51.400,-0.063,-0.047,1.047,,,,,
2_S1,09/05/2023,09:39:51.500,-0.078,-0.047,1.047,,,,,
2_S1,09/05/2023,09:39:51.600,-0.063,-0.031,1.047,,,,,
2_S1,09/05/2023,09:39:51.700,-0.078,-0.031,1.016,,,,,
2_S1,09/05/2023,09:39:51.800,-0.063,-0.047,1.016,,,,,
2_S1,09/05/2023,09:39:51.900,-0.078,-0.047,1.032,,,,,
2_S1,09/05/2023,09:39:52.000,-0.078,-0.047,1.016,-724.5,1800.0,366.0,,
2_S1,09/05/2023,09:39:52.100,-0.078,-0.047,1.016,,,,,
2_S1,09/05/2023,09:39:52.200,-0.078,-0.031,1.032,,,,,
2_S1,09/05/2023,09:39:52.300,-0.063,-0.047,1.032,,,,,
2_S1,09/05/2023,09:39:52.400,-0.063,-0.047,1.047,,,,,
2_S1,09/05/2023,09:39:52.500,-0.063,-0.047,1.032,,,,,
2_S1,09/05/2023,09:39:52.600,-0.063,-0.047,1.000,,,,,
2_S1,09/05/2023,09:39:52.700,-0.078,-0.047,1.032,,,,,
2_S1,09/05/2023,09:39:52.800,-0.063,-0.031,1.047,,,,,
2_S1,09/05/2023,09:39:52.900,-0.063,-0.031,1.032,,,,,
2_S1,09/05/2023,09:39:53.000,-0.063,-0.047,1.016,-724.5,1801.5,390.0,,
2_S1,09/05/2023,09:39:53.100,-0.078,-0.047,1.016,,,,,
2_S1,09/05/2023,09:39:53.200,-0.078,-0.047,1.047,,,,,
2_S1,09/05/2023,09:39:53.300,-0.078,-0.047,1.047,,,,,
2_S1,09/05/2023,09:39:53.400,-0.078,-0.031,1.016,,,,,
2_S1,09/05/2023,09:39:53.500,-0.063,-0.047,1.000,,,,,
2_S1,09/05/2023,09:39:53.600,-0.078,-0.047,1.016,,,,,
2_S1,09/05/2023,09:39:53.700,-0.063,-0.031,1.063,,,,,
2_S1,09/05/2023,09:39:53.800,-0.063,-0.047,1.047,,,,,
2_S1,09/05/2023,09:39:53.900,-0.063,-0.047,1.016,,,,,
2_S1,09/05/2023,09:39:54.000,-0.063,-0.047,1.032,-724.5,1806.0,381.0,,
2_S1,09/05/2023,09:39:54.100,-0.077,-0.047,1.046,,,,,
2_S1,09/05/2023,09:39:54.200,-0.066,-0.047,1.035,,,,,
2_S1,09/05/2023,09:39:54.300,-0.073,-0.058,1.032,,,,,
2_S1,09/05/2023,09:39:54.400,-0.078,-0.044,1.022,,,,,
2_S1,09/05/2023,09:39:54.500,-0.078,-0.031,1.032,,,,,
2_S1,09/05/2023,09:39:54.600,-0.072,-0.038,1.047,,,,,
2_S1,09/05/2023,09:39:54.700,-0.063,-0.042,1.043,,,,,
2_S1,09/05/2023,09:39:54.800,-0.063,-0.031,1.032,,,,,
2_S1,09/05/2023,09:39:54.900,-0.063,-0.031,1.032,,,,,
2_S1,09/05/2023,09:39:55.000,-0.078,-0.047,1.016,-724.5,1815.0,381.0,,
2_S1,09/05/2023,09:39:55.100,-0.078,-0.047,1.047,,,,,
2_S1,09/05/2023,09:39:55.200,-0.078,-0.047,1.032,,,,,
2_S1,09/05/2023,09:39:55.300,-0.078,-0.047,1.032,,,,,
2_S1,09/05/2023,09:39:55.400,-0.078,-0.047,1.000,,,,,
2_S1,09/05/2023,09:39:55.500,-0.063,-0.031,1.032,,,,,
2_S1,09/05/2023,09:39:55.600,-0.078,-0.047,1.032,,,,,
2_S1,09/05/2023,09:39:55.700,-0.078,-0.031,1.016,,,,,
2_S1,09/05/2023,09:39:55.800,-0.078,-0.047,1.032,,,,,
2_S1,09/05/2023,09:39:55.900,-0.078,-0.047,1.032,,,,,
2_S1,09/05/2023,09:39:56.000,-0.078,-0.031,1.047,-730.5,1807.5,370.5,,
2_S1,09/05/2023,09:39:56.100,-0.063,-0.031,1.047,,,,,
2_S1,09/05/2023,09:39:56.200,-0.078,-0.031,1.032,,,,,
2_S1,09/05/2023,09:39:56.300,-0.063,-0.047,1.000,,,,,
2_S1,09/05/2023,09:39:56.400,-0.078,-0.031,1.032,,,,,
2_S1,09/05/2023,09:39:56.500,-0.063,-0.047,1.032,,,,,
2_S1,09/05/2023,09:39:56.600,-0.078,-0.031,1.047,,,,,
2_S1,09/05/2023,09:39:56.700,-0.078,-0.047,1.032,,,,,
2_S1,09/05/2023,09:39:56.800,-0.078,-0.031,1.032,,,,,
2_S1,09/05/2023,09:39:56.900,-0.078,-0.063,1.047,,,,,
2_S1,09/05/2023,09:39:57.000,-0.078,-0.031,1.032,-721.5,1804.5,385.5,,
2_S1,09/05/2023,09:39:57.100,-0.063,-0.047,1.000,,,,,
2_S1,09/05/2023,09:39:57.200,-0.063,-0.047,1.016,,,,,
2_S1,09/05/2023,09:39:57.300,-0.078,-0.031,1.032,,,,,
2_S1,09/05/2023,09:39:57.400,-0.063,-0.031,1.047,,,,,
2_S1,09/05/2023,09:39:57.500,-0.078,-0.031,1.032,,,,,
2_S1,09/05/2023,09:39:57.600,-0.078,-0.047,1.016,,,,,
2_S1,09/05/2023,09:39:57.700,-0.063,-0.047,1.032,,,,,
2_S1,09/05/2023,09:39:57.800,-0.078,-0.031,1.047,,,,,
2_S1,09/05/2023,09:39:57.900,-0.063,-0.047,1.032,,,,,
2_S1,09/05/2023,09:39:58.000,-0.078,-0.047,1.016,-724.5,1801.5,382.5,,
2_S1,09/05/2023,09:39:58.100,-0.063,-0.031,1.032,,,,,
2_S1,09/05/2023,09:39:58.200,-0.078,-0.047,1.047,,,,,
2_S1,09/05/2023,09:39:58.300,-0.063,-0.047,1.032,,,,,
2_S1,09/05/2023,09:39:58.400,-0.078,-0.047,1.032,,,,,
2_S1,09/05/2023,09:39:58.500,-0.078,-0.047,1.000,,,,,
2_S1,09/05/2023,09:39:58.600,-0.078,-0.047,1.032,,,,,
2_S1,09/05/2023,09:39:58.700,-0.047,-0.031,1.047,,,,,
2_S1,09/05/2023,09:39:58.800,-0.078,-0.031,1.047,,,,,
2_S1,09/05/2023,09:39:58.900,-0.078,-0.031,1.047,,,,,
2_S1,09/05/2023,09:39:59.000,-0.078,-0.047,1.016,-714.0,1807.5,391.5,,
2_S1,09/05/2023,09:39:59.100,-0.064,-0.033,1.030,,,,,
2_S1,09/05/2023,09:39:59.200,-0.075,-0.044,1.032,,,,,
2_S1,09/05/2023,09:39:59.300,-0.067,-0.047,1.032,,,,,
2_S1,09/05/2023,09:39:59.400,-0.063,-0.038,1.013,,,,,
2_S1,09/05/2023,09:39:59.500,-0.070,-0.039,1.016,,,,,
2_S1,09/05/2023,09:39:59.600,-0.072,-0.041,1.038,,,,,
2_S1,09/05/2023,09:39:59.700,-0.067,-0.031,1.038,,,,,
2_S1,09/05/2023,09:39:59.800,-0.078,-0.034,1.016,,,,,
2_S1,09/05/2023,09:39:59.900,-0.078,-0.047,1.016,,,,,
2_S1,09/05/2023,09:40:00.000,-0.078,-0.031,1.032,-715.5,1813.5,382.5,,
2_S1,09/05/2023,09:40:00.100,-0.063,-0.031,1.016,,,,,
2_S1,09/05/2023,09:40:00.200,-0.063,-0.031,1.047,,,,,
2_S1,09/05/2023,09:40:00.300,-0.078,-0.031,1.016,,,,,
2_S1,09/05/2023,09:40:00.400,-0.078,-0.047,1.016,,,,,
2_S1,09/05/2023,09:40:00.500,-0.063,-0.047,1.047,,,,,
2_S1,09/05/2023,09:40:00.600,-0.063,-0.031,1.032,,,,,
2_S1,09/05/2023,09:40:00.700,-0.063,-0.047,1.032,,,,,
2_S1,09/05/2023,09:40:00.800,-0.078,-0.047,1.016,,,,,
2_S1,09/05/2023,09:40:00.900,-0.078,-0.047,1.032,,,,,
2_S1,09/05/2023,09:40:01.000,-0.078,-0.047,1.032,-730.5,1806.0,375.0,,
2_S1,09/05/2023,09:40:01.100,-0.063,-0.047,1.032,,,,,
2_S1,09/05/2023,09:40:01.200,-0.078,-0.047,1.000,,,,,
2_S1,09/05/2023,09:40:01.300,-0.078,-0.047,1.000,,,,,
2_S1,09/05/2023,09:40:01.400,-0.063,-0.031,1.047,,,,,
2_S1,09/05/2023,09:40:01.500,-0.078,-0.063,1.047,,,,,
2_S1,09/05/2023,09:40:01.600,-0.063,-0.047,1.032,,,,,
2_S1,09/05/2023,09:40:01.700,-0.063,-0.031,1.016,,,,,
2_S1,09/05/2023,09:40:01.800,-0.078,-0.031,1.032,,,,,
2_S1,09/05/2023,09:40:01.900,-0.078,-0.031,1.032,,,,,
2_S1,09/05/2023,09:40:02.000,-0.063,-0.031,1.032,-705.0,1798.5,379.5,,
2_S1,09/05/2023,09:40:02.100,-0.078,-0.047,1.016,,,,,
2_S1,09/05/2023,09:40:02.200,-0.063,-0.031,1.032,,,,,
2_S1,09/05/2023,09:40:02.300,-0.063,-0.031,1.032,,,,,
2_S1,09/05/2023,09:40:02.400,-0.063,-0.031,1.032,,,,,
2_S1,09/05/2023,09:40:02.500,-0.078,-0.031,1.016,,,,,
2_S1,09/05/2023,09:40:02.600,-0.078,-0.031,1.032,,,,,
2_S1,09/05/2023,09:40:02.700,-0.078,-0.047,1.032,,,,,
2_S1,09/05/2023,09:40:02.800,-0.063,-0.031,1.032,,,,,
2_S1,09/05/2023,09:40:02.900,-0.063,-0.047,1.032,,,,,
2_S1,09/05/2023,09:40:03.000,-0.078,-0.063,1.016,-738.0,1800.0,372.0,,
2_S1,09/05/2023,09:40:03.100,-0.078,-0.031,1.000,,,,,
2_S1,09/05/2023,09:40:03.200,-0.063,-0.047,1.032,,,,,
2_S1,09/05/2023,09:40:03.300,-0.063,-0.047,1.032,,,,,
2_S1,09/05/2023,09:40:03.400,-0.063,-0.031,1.016,,,,,
2_S1,09/05/2023,09:40:03.500,-0.078,-0.047,1.032,,,,,
2_S1,09/05/2023,09:40:03.600,-0.078,-0.031,1.032,,,,,
2_S1,09/05/2023,09:40:03.700,-0.078,-0.031,1.047,,,,,
2_S1,09/05/2023,09:40:03.800,-0.063,-0.031,1.047,,,,,
2_S1,09/05/2023,09:40:03.900,-0.078,-0.047,1.032,,,,,
2_S1,09/05/2023,09:40:04.000,-0.063,-0.031,1.016,-718.5,1806.0,381.0,,
2_S1,09/05/2023,09:40:04.100,-0.063,-0.047,1.032,,,,,
2_S1,09/05/2023,09:40:04.200,-0.063,-0.031,1.047,,,,,
2_S1,09/05/2023,09:40:04.300,-0.063,-0.047,1.032,,,,,
2_S1,09/05/2023,09:40:04.400,-0.078,-0.047,1.016,,,,,
2_S1,09/05/2023,09:40:04.500,-0.078,-0.047,1.032,,,,,
2_S1,09/05/2023,09:40:04.600,-0.063,-0.031,1.032,,,,,
2_S1,09/05/2023,09:40:04.700,-0.063,-0.047,1.032,,,,,
2_S1,09/05/2023,09:40:04.800,-0.063,-0.047,1.016,,,,,
2_S1,09/05/2023,09:40:04.900,-0.078,-0.047,1.047,,,,,
2_S1,09/05/2023,09:40:05.000,-0.078,-0.031,1.047,-739.5,1803.0,378.0,,
2_S1,09/05/2023,09:40:05.100,-0.064,-0.045,1.047,,,,,
2_S1,09/05/2023,09:40:05.200,-0.063,-0.047,1.035,,,,,
2_S1,09/05/2023,09:40:05.300,-0.073,-0.058,1.032,,,,,
2_S1,09/05/2023,09:40:05.400,-0.078,-0.053,1.032,,,,,
2_S1,09/05/2023,09:40:05.500,-0.070,-0.047,1.039,,,,,
2_S1,09/05/2023,09:40:05.600,-0.056,-0.041,1.041,,,,,
2_S1,09/05/2023,09:40:05.700,-0.052,-0.036,1.027,,,,,
2_S1,09/05/2023,09:40:05.800,-0.066,-0.044,1.016,,,,,
2_S1,09/05/2023,09:40:05.900,-0.078,-0.031,1.016,,,,,
2_S1,09/05/2023,09:40:06.000,-0.078,-0.047,1.047,-742.5,1819.5,393.0,,
2_S1,09/05/2023,09:40:06.100,-0.078,-0.047,1.047,,,,,
2_S1,09/05/2023,09:40:06.200,-0.078,-0.047,1.032,,,,,
2_S1,09/05/2023,09:40:06.300,-0.078,-0.047,1.000,,,,,
2_S1,09/05/2023,09:40:06.400,-0.063,-0.047,1.016,,,,,
2_S1,09/05/2023,09:40:06.500,-0.063,-0.031,1.032,,,,,
2_S1,09/05/2023,09:40:06.600,-0.063,-0.031,1.016,,,,,
2_S1,09/05/2023,09:40:06.700,-0.063,-0.047,1.016,,,,,
2_S1,09/05/2023,09:40:06.800,-0.078,-0.047,1.032,,,,,
2_S1,09/05/2023,09:40:06.900,-0.063,-0.016,1.032,,,,,
2_S1,09/05/2023,09:40:07.000,-0.078,-0.031,1.047,-705.0,1846.5,370.5,,
2_S1,09/05/2023,09:40:07.100,-0.078,-0.031,1.032,,,,,
2_S1,09/05/2023,09:40:07.200,-0.078,-0.047,1.016,,,,,
2_S1,09/05/2023,09:40:07.300,-0.063,-0.047,1.047,,,,,
2_S1,09/05/2023,09:40:07.400,-0.078,-0.047,1.047,,,,,
2_S1,09/05/2023,09:40:07.500,-0.063,-0.031,1.016,,,,,
2_S1,09/05/2023,09:40:07.600,-0.078,-0.063,1.032,,,,,
2_S1,09/05/2023,09:40:07.700,-0.078,-0.031,1.032,,,,,
2_S1,09/05/2023,09:40:07.800,-0.078,-0.047,1.047,,,,,
2_S1,09/05/2023,09:40:07.900,-0.078,-0.047,1.016,,,,,
2_S1,09/05/2023,09:40:08.000,-0.094,-0.047,1.032,31608.0,-23013.0,-4138.5,,
2_S1,09/05/2023,09:40:08.100,-0.078,-0.047,1.032,,,,,
2_S1,09/05/2023,09:40:08.200,-0.063,-0.031,1.032,,,,,
2_S1,09/05/2023,09:40:08.300,-0.078,0.000,1.032,,,,,
2_S1,09/05/2023,09:40:08.400,-0.078,-0.063,1.016,,,,,
2_S1,09/05/2023,09:40:08.500,-0.078,-0.031,1.000,,,,,
2_S1,09/05/2023,09:40:08.600,-0.078,0.000,1.047,,,,,
2_S1,09/05/2023,09:40:08.700,-0.063,-0.047,1.032,,,,,
2_S1,09/05/2023,09:40:08.800,-0.047,-0.031,1.032,,,,,
2_S1,09/05/2023,09:40:08.900,-0.047,-0.031,1.047,,,,,
2_S1,09/05/2023,09:40:09.000,-0.031,-0.047,1.032,-810.0,-1870.5,-2863.5,,
2_S1,09/05/2023,09:40:09.100,-0.063,-0.063,1.032,,,,,
2_S1,09/05/2023,09:40:09.200,0.000,-0.031,1.047,,,,,
2_S1,09/05/2023,09:40:09.300,-0.016,-0.031,0.985,,,,,
2_S1,09/05/2023,09:40:09.400,-0.016,-0.031,1.000,,,,,
2_S1,09/05/2023,09:40:09.500,0.031,-0.047,1.032,,,,,
2_S1,09/05/2023,09:40:09.600,-0.125,-0.047,1.016,,,,,
2_S1,09/05/2023,09:40:09.700,-0.078,-0.031,1.032,,,,,
2_S1,09/05/2023,09:40:09.800,-0.063,-0.031,1.016,,,,,
2_S1,09/05/2023,09:40:09.900,-0.078,-0.047,1.032,,,,,
2_S1,09/05/2023,09:40:10.000,-0.109,-0.141,1.078,-1384.5,1828.5,-2127.0,,
2_S1,09/05/2023,09:40:10.100,-0.067,-0.042,1.022,,,,,
2_S1,09/05/2023,09:40:10.200,-0.075,-0.044,1.028,,,,,
2_S1,09/05/2023,09:40:10.300,-0.067,-0.047,1.021,,,,,
2_S1,09/05/2023,09:40:10.400,-0.063,-0.028,1.025,,,,,
2_S1,09/05/2023,09:40:10.500,-0.063,-0.031,1.032,,,,,
2_S1,09/05/2023,09:40:10.600,-0.063,-0.047,1.025,,,,,
2_S1,09/05/2023,09:40:10.700,-0.067,-0.042,1.016,,,,,
2_S1,09/05/2023,09:40:10.800,-0.081,-0.034,1.016,,,,,
2_S1,09/05/2023,09:40:10.900,-0.094,-0.047,1.016,,,,,
2_S1,09/05/2023,09:40:10.000,0.000,0.000,0.000,,,,25,Power off command received.
