TagID,Date,Time,accX,accY,accZ,magX,magY,magZ,Temp. (?C),Metadata
1_S8,10/05/2023,13:22:19.000,-0.188,-1.000,-0.313,-592.5,459.0,724.5,24,
1_S8,10/05/2023,13:22:19.100,-0.188,-0.938,-0.188,,,,,
1_S8,10/05/2023,13:22:19.200,-0.250,-0.938,-0.188,,,,,
1_S8,10/05/2023,13:22:19.300,-0.250,-0.938,-0.125,,,,,
1_S8,10/05/2023,13:22:19.400,-0.188,-0.938,-0.125,,,,,
1_S8,10/05/2023,13:22:19.500,-0.188,-0.938,0.063,-592.5,493.5,633.0,,
1_S8,10/05/2023,13:22:19.600,-0.188,-0.875,0.125,,,,,
1_S8,10/05/2023,13:22:19.700,-0.125,-0.750,0.500,,,,,
1_S8,10/05/2023,13:22:19.800,-0.063,-0.875,0.438,,,,,
1_S8,10/05/2023,13:22:19.900,-0.063,-0.750,0.563,,,,,
1_S8,10/05/2023,13:22:20.000,0.000,-0.563,0.750,-627.0,400.5,409.5,,
1_S8,10/05/2023,13:22:20.100,0.063,-0.750,0.938,,,,,
1_S8,10/05/2023,13:22:20.200,0.000,-0.375,0.875,,,,,
1_S8,10/05/2023,13:22:20.300,0.000,-0.438,0.938,,,,,
1_S8,10/05/2023,13:22:20.400,0.063,-0.188,0.875,,,,,
1_S8,10/05/2023,13:22:20.500,0.000,-0.063,1.000,-660.0,174.0,270.0,,
1_S8,10/05/2023,13:22:20.600,0.000,-0.063,1.063,,,,,
1_S8,10/05/2023,13:22:20.700,0.000,0.188,0.938,,,,,
1_S8,10/05/2023,13:22:20.800,-0.063,0.563,0.875,,,,,
1_S8,10/05/2023,13:22:20.900,-0.063,1.000,0.688,,,,,
1_S8,10/05/2023,13:22:21.000,-0.063,0.938,0.500,-645.0,-204.0,421.5,,
1_S8,10/05/2023,13:22:21.100,-0.063,0.938,0.438,,,,,
1_S8,10/05/2023,13:22:21.200,-0.063,1.063,0.063,,,,,
1_S8,10/05/2023,13:22:21.300,0.000,1.063,0.000,,,,,
1_S8,10/05/2023,13:22:21.400,0.000,1.063,-0.125,,,,,
1_S8,10/05/2023,13:22:21.500,0.000,1.063,-0.188,-660.0,-180.0,667.5,,
1_S8,10/05/2023,13:22:21.600,-0.125,1.063,-0.188,,,,,
1_S8,10/05/2023,13:22:21.700,-0.500,0.750,-0.438,,,,,
1_S8,10/05/2023,13:22:21.800,-1.125,0.500,-0.188,,,,,
1_S8,10/05/2023,13:22:21.900,-1.000,0.625,-0.125,,,,,
1_S8,10/05/2023,13:22:22.000,-0.625,0.563,-0.688,-391.5,-135.0,879.0,,
1_S8,10/05/2023,13:22:22.100,-0.500,0.500,-0.813,,,,,
1_S8,10/05/2023,13:22:22.200,-0.375,0.375,-0.875,,,,,
1_S8,10/05/2023,13:22:22.300,-0.375,0.500,-0.875,,,,,
1_S8,10/05/2023,13:22:22.400,-0.250,0.375,-0.938,,,,,
1_S8,10/05/2023,13:22:22.500,-0.188,0.188,-0.938,-549.0,18.0,958.5,,
1_S8,10/05/2023,13:22:22.600,-0.188,0.188,-1.000,,,,,
1_S8,10/05/2023,13:22:22.700,-0.250,-0.125,-1.000,,,,,
1_S8,10/05/2023,13:22:22.800,-0.250,-0.125,-1.000,,,,,
1_S8,10/05/2023,13:22:22.900,-0.125,0.063,-1.000,,,,,
1_S8,10/05/2023,13:22:23.000,-0.125,0.000,-1.000,-606.0,93.0,954.0,,
1_S8,10/05/2023,13:22:23.100,-0.069,0.063,-1.169,,,,,
1_S8,10/05/2023,13:22:23.200,-0.113,0.013,-0.988,,,,,
1_S8,10/05/2023,13:22:23.300,-0.081,-0.206,-0.938,,,,,
1_S8,10/05/2023,13:22:23.400,-0.150,-0.225,-0.938,,,,,
1_S8,10/05/2023,13:22:23.500,-0.188,-0.313,-0.907,-621.0,165.0,954.0,,
1_S8,10/05/2023,13:22:23.600,-0.113,-0.475,-0.800,,,,,
1_S8,10/05/2023,13:22:23.700,-0.063,-0.588,-0.750,,,,,
1_S8,10/05/2023,13:22:23.800,-0.113,-0.725,-0.650,,,,,
1_S8,10/05/2023,13:22:23.900,-0.125,-0.813,-0.625,,,,,
1_S8,10/05/2023,13:22:24.000,-0.125,-0.938,-0.375,-624.0,342.0,883.5,24,
1_S8,10/05/2023,13:22:24.100,-0.063,-1.063,-0.313,,,,,
1_S8,10/05/2023,13:22:24.200,-0.063,-0.938,-0.125,,,,,
1_S8,10/05/2023,13:22:24.300,-0.125,-1.000,0.063,,,,,
1_S8,10/05/2023,13:22:24.400,0.000,-0.875,0.250,,,,,
1_S8,10/05/2023,13:22:24.500,0.000,-0.875,0.438,-598.5,486.0,633.0,,
1_S8,10/05/2023,13:22:24.600,0.000,-0.875,0.438,,,,,
1_S8,10/05/2023,13:22:24.700,0.000,-0.813,0.500,,,,,
1_S8,10/05/2023,13:22:24.800,0.000,-1.188,0.688,,,,,
1_S8,10/05/2023,13:22:24.900,-0.125,-0.750,0.625,,,,,
1_S8,10/05/2023,13:22:25.000,0.000,-0.625,0.688,-585.0,466.5,504.0,,
1_S8,10/05/2023,13:22:25.100,0.000,-0.625,0.750,,,,,
1_S8,10/05/2023,13:22:25.200,0.000,-0.563,0.750,,,,,
1_S8,10/05/2023,13:22:25.300,0.063,-0.500,0.875,,,,,
1_S8,10/05/2023,13:22:25.400,0.063,-0.438,0.875,,,,,
1_S8,10/05/2023,13:22:25.500,0.063,-0.375,0.938,-628.5,411.0,385.5,,
1_S8,10/05/2023,13:22:25.600,0.000,-0.375,0.938,,,,,
1_S8,10/05/2023,13:22:25.700,0.000,-0.188,1.000,,,,,
1_S8,10/05/2023,13:22:25.800,0.063,-0.188,1.000,,,,,
1_S8,10/05/2023,13:22:25.900,0.125,-0.063,1.000,,,,,
1_S8,10/05/2023,13:22:26.000,0.125,0.188,1.000,-681.0,276.0,303.0,,
1_S8,10/05/2023,13:22:26.100,0.188,0.250,1.000,,,,,
1_S8,10/05/2023,13:22:26.200,0.188,0.313,1.000,,,,,
1_S8,10/05/2023,13:22:26.300,0.125,0.688,0.875,,,,,
1_S8,10/05/2023,13:22:26.400,0.063,0.438,0.813,,,,,
1_S8,10/05/2023,13:22:26.500,0.000,0.813,0.813,-627.0,34.5,216.0,,
1_S8,10/05/2023,13:22:26.600,-0.063,0.625,0.688,,,,,
1_S8,10/05/2023,13:22:26.700,-0.063,0.875,0.563,,,,,
1_S8,10/05/2023,13:22:26.800,-0.125,1.125,0.313,,,,,
1_S8,10/05/2023,13:22:26.900,-0.188,1.000,0.313,,,,,
1_S8,10/05/2023,13:22:27.000,-0.063,1.063,0.250,-492.0,-178.5,276.0,,
1_S8,10/05/2023,13:22:27.100,-0.125,1.063,0.125,,,,,
1_S8,10/05/2023,13:22:27.200,-0.125,1.125,0.000,,,,,
1_S8,10/05/2023,13:22:27.300,-0.125,1.063,-0.125,,,,,
1_S8,10/05/2023,13:22:27.400,-0.063,1.125,-0.125,,,,,
1_S8,10/05/2023,13:22:27.500,-0.063,1.125,-0.125,-441.0,-244.5,376.5,,
1_S8,10/05/2023,13:22:27.600,0.000,0.938,-0.313,,,,,
1_S8,10/05/2023,13:22:27.700,-0.063,1.000,-0.438,,,,,
1_S8,10/05/2023,13:22:27.800,-0.063,1.000,-0.563,,,,,
1_S8,10/05/2023,13:22:27.900,-0.125,0.750,-0.625,,,,,
1_S8,10/05/2023,13:22:28.000,-0.125,0.688,-0.813,-403.5,-273.0,681.0,,
1_S8,10/05/2023,13:22:28.100,-0.125,0.663,-0.882,,,,,
1_S8,10/05/2023,13:22:28.200,-0.125,0.400,-0.950,,,,,
1_S8,10/05/2023,13:22:28.300,-0.088,0.213,-1.000,,,,,
1_S8,10/05/2023,13:22:28.400,-0.050,0.075,-1.000,,,,,
1_S8,10/05/2023,13:22:28.500,-0.094,-0.125,-1.000,-375.0,-73.5,943.5,,
1_S8,10/05/2023,13:22:28.600,-0.063,-0.288,-0.925,,,,,
1_S8,10/05/2023,13:22:28.700,-0.106,-0.356,-0.919,,,,,
1_S8,10/05/2023,13:22:28.800,-0.125,-0.525,-0.888,,,,,
1_S8,10/05/2023,13:22:28.900,-0.063,-0.750,-0.688,,,,,
1_S8,10/05/2023,13:22:29.000,-0.125,-0.750,-0.563,-289.5,226.5,954.0,24,
1_S8,10/05/2023,13:22:29.100,-0.250,-0.938,-0.438,,,,,
1_S8,10/05/2023,13:22:29.200,-0.125,-0.875,-0.375,,,,,
1_S8,10/05/2023,13:22:29.300,-0.125,-1.000,0.125,,,,,
1_S8,10/05/2023,13:22:29.400,-0.063,-0.875,0.375,,,,,
1_S8,10/05/2023,13:22:29.500,-0.063,-0.938,0.375,-235.5,475.5,655.5,,
1_S8,10/05/2023,13:22:29.600,-0.063,-0.875,0.438,,,,,
1_S8,10/05/2023,13:22:29.700,0.000,-0.813,0.438,,,,,
1_S8,10/05/2023,13:22:29.800,0.000,-0.813,0.500,,,,,
1_S8,10/05/2023,13:22:29.900,-0.063,-0.750,0.563,,,,,
1_S8,10/05/2023,13:22:30.000,0.063,-0.688,0.750,-252.0,459.0,468.0,,
1_S8,10/05/2023,13:22:30.100,0.063,-0.500,0.875,,,,,
1_S8,10/05/2023,13:22:30.200,0.063,-0.438,0.875,,,,,
1_S8,10/05/2023,13:22:30.300,0.125,-0.438,1.000,,,,,
1_S8,10/05/2023,13:22:30.400,0.000,-0.313,1.063,,,,,
1_S8,10/05/2023,13:22:30.500,0.000,-0.063,1.063,-261.0,366.0,304.5,,
1_S8,10/05/2023,13:22:30.600,0.000,0.125,0.938,,,,,
1_S8,10/05/2023,13:22:30.700,0.000,0.250,0.938,,,,,
1_S8,10/05/2023,13:22:30.800,-0.063,0.563,0.875,,,,,
1_S8,10/05/2023,13:22:30.900,-0.063,0.688,0.813,,,,,
1_S8,10/05/2023,13:22:31.000,-0.188,0.625,0.750,-214.5,25.5,237.0,,
1_S8,10/05/2023,13:22:31.100,-0.313,0.875,0.625,,,,,
1_S8,10/05/2023,13:22:31.200,-0.438,0.938,0.438,,,,,
1_S8,10/05/2023,13:22:31.300,-0.625,0.938,0.125,,,,,
1_S8,10/05/2023,13:22:31.400,-0.688,0.813,-0.250,,,,,
1_S8,10/05/2023,13:22:31.500,-0.625,0.813,-0.250,-24.0,-22.5,538.5,,
1_S8,10/05/2023,13:22:31.600,-0.688,0.875,-0.375,,,,,
1_S8,10/05/2023,13:22:31.700,-0.563,0.813,-0.500,,,,,
1_S8,10/05/2023,13:22:31.800,-0.438,0.750,-0.375,,,,,
1_S8,10/05/2023,13:22:31.900,-0.500,0.813,-0.563,,,,,
1_S8,10/05/2023,13:22:32.000,-0.500,0.750,-0.625,-81.0,-67.5,691.5,,
1_S8,10/05/2023,13:22:32.100,-0.625,0.688,-0.750,,,,,
1_S8,10/05/2023,13:22:32.200,-0.500,0.563,-0.813,,,,,
1_S8,10/05/2023,13:22:32.300,-0.375,0.375,-0.875,,,,,
1_S8,10/05/2023,13:22:32.400,-0.375,0.250,-0.875,,,,,
1_S8,10/05/2023,13:22:32.500,-0.375,0.313,-1.063,-91.5,61.5,850.5,,
1_S8,10/05/2023,13:22:32.600,-0.375,0.000,-0.875,,,,,
1_S8,10/05/2023,13:22:32.700,-0.375,-0.250,-0.813,,,,,
1_S8,10/05/2023,13:22:32.800,-0.375,-0.563,-0.750,,,,,
1_S8,10/05/2023,13:22:32.900,-0.313,-0.688,-0.688,,,,,
1_S8,10/05/2023,13:22:33.000,-0.250,-0.563,-0.438,-69.0,310.5,729.0,,
1_S8,10/05/2023,13:22:33.100,-0.306,-0.882,-0.306,,,,,
1_S8,10/05/2023,13:22:33.200,-0.238,-0.950,-0.225,,,,,
1_S8,10/05/2023,13:22:33.300,-0.206,-1.000,-0.050,,,,,
1_S8,10/05/2023,13:22:33.400,-0.325,-0.475,0.425,,,,,
1_S8,10/05/2023,13:22:33.500,-0.344,-0.250,0.719,-120.0,348.0,429.0,,
1_S8,10/05/2023,13:22:33.600,-0.250,-0.700,0.638,,,,,
1_S8,10/05/2023,13:22:33.700,-0.250,-0.538,0.644,,,,,
1_S8,10/05/2023,13:22:33.800,-0.300,-0.550,0.675,,,,,
1_S8,10/05/2023,13:22:33.900,-0.375,-0.500,0.500,,,,,
1_S8,10/05/2023,13:22:34.000,-0.500,-0.563,0.750,-88.5,229.5,348.0,24,
1_S8,10/05/2023,13:22:34.100,-0.500,-0.250,0.875,,,,,
1_S8,10/05/2023,13:22:34.200,-0.500,-0.125,0.938,,,,,
1_S8,10/05/2023,13:22:34.300,-0.563,0.000,0.875,,,,,
1_S8,10/05/2023,13:22:34.400,-0.500,0.063,0.875,,,,,
1_S8,10/05/2023,13:22:34.500,-0.625,0.125,0.813,-67.5,-43.5,391.5,,
1_S8,10/05/2023,13:22:34.600,-0.625,0.125,0.813,,,,,
1_S8,10/05/2023,13:22:34.700,-0.688,0.250,0.813,,,,,
1_S8,10/05/2023,13:22:34.800,-0.625,0.438,0.688,,,,,
1_S8,10/05/2023,13:22:34.900,-0.625,0.688,0.625,,,,,
1_S8,10/05/2023,13:22:35.000,-0.625,0.688,0.500,-120.0,-187.5,555.0,,
1_S8,10/05/2023,13:22:35.100,-0.375,1.063,0.438,,,,,
1_S8,10/05/2023,13:22:35.200,-0.500,0.750,0.438,,,,,
1_S8,10/05/2023,13:22:35.300,-0.563,0.938,0.438,,,,,
1_S8,10/05/2023,13:22:35.400,-0.875,0.938,0.063,,,,,
1_S8,10/05/2023,13:22:35.500,-1.000,1.250,-0.250,-169.5,-159.0,765.0,,
1_S8,10/05/2023,13:22:35.600,-0.625,0.875,-0.188,,,,,
1_S8,10/05/2023,13:22:35.700,-0.625,0.750,-0.375,,,,,
1_S8,10/05/2023,13:22:35.800,-0.625,0.500,-0.438,,,,,
1_S8,10/05/2023,13:22:35.900,-0.563,0.750,-0.625,,,,,
1_S8,10/05/2023,13:22:36.000,-0.563,0.563,-0.625,-241.5,84.0,946.5,,
1_S8,10/05/2023,13:22:36.100,-0.438,0.500,-0.750,,,,,
1_S8,10/05/2023,13:22:36.200,-0.500,0.438,-0.813,,,,,
1_S8,10/05/2023,13:22:36.300,-0.438,0.375,-0.875,,,,,
1_S8,10/05/2023,13:22:36.400,-0.375,0.313,-0.938,,,,,
1_S8,10/05/2023,13:22:36.500,-0.375,0.250,-0.938,-282.0,264.0,937.5,,
1_S8,10/05/2023,13:22:36.600,-0.438,0.063,-1.000,,,,,
1_S8,10/05/2023,13:22:36.700,-0.375,-0.125,-0.938,,,,,
1_S8,10/05/2023,13:22:36.800,-0.375,-0.188,-0.938,,,,,
1_S8,10/05/2023,13:22:36.900,-0.375,-0.313,-0.813,,,,,
1_S8,10/05/2023,13:22:37.000,-0.438,-0.438,-0.813,-336.0,475.5,789.0,,
1_S8,10/05/2023,13:22:37.100,-0.375,-0.563,-0.625,,,,,
1_S8,10/05/2023,13:22:37.200,-0.313,-0.813,-0.438,,,,,
1_S8,10/05/2023,13:22:37.300,-0.250,-0.875,-0.250,,,,,
1_S8,10/05/2023,13:22:37.400,-0.250,-0.938,-0.125,,,,,
1_S8,10/05/2023,13:22:37.500,-0.188,-1.000,-0.125,-426.0,466.5,426.0,,
1_S8,10/05/2023,13:22:37.600,-0.250,-0.813,0.125,,,,,
1_S8,10/05/2023,13:22:37.700,-0.250,-0.813,0.250,,,,,
1_S8,10/05/2023,13:22:37.800,-0.250,-0.750,0.188,,,,,
1_S8,10/05/2023,13:22:37.900,-0.125,-0.750,0.438,,,,,
1_S8,10/05/2023,13:22:38.000,-0.125,-0.688,0.688,-495.0,220.5,204.0,,
1_S8,10/05/2023,13:22:38.100,-0.125,-0.556,0.706,,,,,
1_S8,10/05/2023,13:22:38.200,-0.100,-0.463,0.875,,,,,
1_S8,10/05/2023,13:22:38.300,0.000,-0.275,0.913,,,,,
1_S8,10/05/2023,13:22:38.400,0.000,-0.163,1.000,,,,,
1_S8,10/05/2023,13:22:38.500,0.031,-0.063,1.000,-549.0,-18.0,213.0,,
1_S8,10/05/2023,13:22:38.600,0.025,0.038,1.038,,,,,
1_S8,10/05/2023,13:22:38.700,-0.044,0.106,1.063,,,,,
1_S8,10/05/2023,13:22:38.800,-0.013,0.225,1.013,,,,,
1_S8,10/05/2023,13:22:38.900,-0.063,0.438,0.875,,,,,
1_S8,10/05/2023,13:22:39.000,-0.125,0.625,0.875,-516.0,-175.5,289.5,24,
1_S8,10/05/2023,13:22:39.100,-0.250,0.688,0.750,,,,,
1_S8,10/05/2023,13:22:39.200,-0.188,0.688,0.813,,,,,
1_S8,10/05/2023,13:22:39.300,-0.188,0.813,0.750,,,,,
1_S8,10/05/2023,13:22:39.400,-0.250,0.875,0.688,,,,,
1_S8,10/05/2023,13:22:39.500,-0.250,0.875,0.563,-508.5,-262.5,447.0,,
1_S8,10/05/2023,13:22:39.600,-0.250,0.938,0.500,,,,,
1_S8,10/05/2023,13:22:39.700,-0.313,0.938,0.375,,,,,
1_S8,10/05/2023,13:22:39.800,-0.438,0.938,0.250,,,,,
1_S8,10/05/2023,13:22:39.900,-0.500,0.938,-0.125,,,,,
1_S8,10/05/2023,13:22:40.000,-0.500,0.875,-0.250,-414.0,-234.0,747.0,,
1_S8,10/05/2023,13:22:40.100,-0.500,0.750,-0.375,,,,,
1_S8,10/05/2023,13:22:40.200,-0.500,0.875,-0.500,,,,,
1_S8,10/05/2023,13:22:40.300,-0.563,0.688,-0.563,,,,,
1_S8,10/05/2023,13:22:40.400,-0.625,0.688,-0.813,,,,,
1_S8,10/05/2023,13:22:40.500,-0.500,0.500,-0.750,-411.0,-60.0,963.0,,
1_S8,10/05/2023,13:22:40.600,-0.500,0.250,-0.813,,,,,
1_S8,10/05/2023,13:22:40.700,-0.500,0.125,-0.875,,,,,
1_S8,10/05/2023,13:22:40.800,-0.438,0.000,-0.938,,,,,
1_S8,10/05/2023,13:22:40.900,-0.500,-0.063,-0.875,,,,,
1_S8,10/05/2023,13:22:41.000,-0.438,-0.125,-0.875,-478.5,216.0,963.0,,
1_S8,10/05/2023,13:22:41.100,-0.500,-0.250,-0.813,,,,,
1_S8,10/05/2023,13:22:41.200,-0.500,-0.500,-0.750,,,,,
1_S8,10/05/2023,13:22:41.300,-0.438,-0.688,-0.563,,,,,
1_S8,10/05/2023,13:22:41.400,-0.438,-0.813,-0.500,,,,,
1_S8,10/05/2023,13:22:41.500,-0.375,-0.688,-0.438,-516.0,442.5,813.0,,
1_S8,10/05/2023,13:22:41.600,-0.188,-0.813,-0.125,,,,,
1_S8,10/05/2023,13:22:41.700,-0.250,-1.000,-0.250,,,,,
1_S8,10/05/2023,13:22:41.800,-0.250,-0.938,-0.250,,,,,
1_S8,10/05/2023,13:22:41.900,-0.250,-0.938,-0.125,,,,,
1_S8,10/05/2023,13:22:42.000,-0.188,-0.938,-0.125,-568.5,484.5,699.0,,
1_S8,10/05/2023,13:22:42.100,-0.250,-0.938,0.019,,,,,
1_S8,10/05/2023,13:22:42.200,-0.263,-0.938,0.225,,,,,
1_S8,10/05/2023,13:22:42.300,-0.294,-0.919,0.394,,,,,
1_S8,10/05/2023,13:22:42.400,-0.275,-0.800,0.513,,,,,
1_S8,10/05/2023,13:22:42.500,-0.313,-0.688,0.688,-523.5,472.5,432.0,,
1_S8,10/05/2023,13:22:42.600,-0.275,-0.575,0.788,,,,,
1_S8,10/05/2023,13:22:42.700,-0.206,-0.456,0.857,,,,,
1_S8,10/05/2023,13:22:42.800,-0.088,-0.138,0.975,,,,,
1_S8,10/05/2023,13:22:42.900,-0.125,0.438,0.938,,,,,
1_S8,10/05/2023,13:22:43.000,-0.250,0.563,0.750,-576.0,142.5,204.0,,
1_S8,10/05/2023,13:22:43.100,-0.250,0.750,0.750,,,,,
1_S8,10/05/2023,13:22:43.200,-0.250,0.813,0.750,,,,,
1_S8,10/05/2023,13:22:43.300,-0.375,0.875,0.625,,,,,
1_S8,10/05/2023,13:22:43.400,-0.375,1.000,0.563,,,,,
1_S8,10/05/2023,13:22:43.500,-0.313,0.938,0.563,-495.0,-151.5,270.0,,
1_S8,10/05/2023,13:22:43.600,-0.125,0.875,0.625,,,,,
1_S8,10/05/2023,13:22:43.700,-0.063,1.375,-0.188,,,,,
1_S8,10/05/2023,13:22:43.800,0.000,0.938,0.438,,,,,
1_S8,10/05/2023,13:22:43.900,-0.063,1.000,0.125,,,,,
1_S8,10/05/2023,13:22:44.000,-0.063,1.000,0.063,-597.0,-193.5,343.5,27,
1_S8,10/05/2023,13:22:44.100,0.000,1.125,-0.063,,,,,
1_S8,10/05/2023,13:22:44.200,-0.063,1.063,-0.125,,,,,
1_S8,10/05/2023,13:22:44.300,-0.063,1.000,-0.313,,,,,
1_S8,10/05/2023,13:22:44.400,-0.063,1.000,-0.375,,,,,
1_S8,10/05/2023,13:22:44.500,-0.125,1.000,-0.563,-589.5,-256.5,565.5,,
1_S8,10/05/2023,13:22:44.600,-0.125,0.938,-0.500,,,,,
1_S8,10/05/2023,13:22:44.700,-0.125,0.750,-0.688,,,,,
1_S8,10/05/2023,13:22:44.800,-0.063,0.750,-0.813,,,,,
1_S8,10/05/2023,13:22:44.900,-0.125,0.563,-0.875,,,,,
1_S8,10/05/2023,13:22:45.000,-0.125,0.500,-0.938,-490.5,-198.0,808.5,,
1_S8,10/05/2023,13:22:45.100,-0.125,0.438,-0.938,,,,,
1_S8,10/05/2023,13:22:45.200,-0.125,0.250,-1.000,,,,,
1_S8,10/05/2023,13:22:45.300,-0.188,0.125,-1.000,,,,,
1_S8,10/05/2023,13:22:45.400,-0.188,-0.063,-1.000,,,,,
1_S8,10/05/2023,13:22:45.500,-0.188,-0.313,-0.938,-436.5,-21.0,979.5,,
1_S8,10/05/2023,13:22:45.600,-0.188,-0.438,-0.875,,,,,
1_S8,10/05/2023,13:22:45.700,-0.063,-0.688,-0.688,,,,,
1_S8,10/05/2023,13:22:45.800,-0.063,-0.813,-0.500,,,,,
1_S8,10/05/2023,13:22:45.900,-0.063,-0.938,-0.313,,,,,
1_S8,10/05/2023,13:22:46.000,0.000,-0.938,-0.188,-403.5,391.5,898.5,,
1_S8,10/05/2023,13:22:46.100,-0.063,-1.063,-0.125,,,,,
1_S8,10/05/2023,13:22:46.200,-0.188,-0.938,0.125,,,,,
1_S8,10/05/2023,13:22:46.300,-0.063,-0.938,0.188,,,,,
1_S8,10/05/2023,13:22:46.400,-0.125,-0.875,0.375,,,,,
1_S8,10/05/2023,13:22:46.500,-0.063,-0.813,0.625,-345.0,534.0,621.0,,
1_S8,10/05/2023,13:22:46.600,-0.125,-0.563,0.813,,,,,
1_S8,10/05/2023,13:22:46.700,-0.125,-0.250,0.938,,,,,
1_S8,10/05/2023,13:22:46.800,-0.063,0.063,1.000,,,,,
1_S8,10/05/2023,13:22:46.900,-0.063,0.500,0.938,,,,,
1_S8,10/05/2023,13:22:47.000,0.000,1.063,0.500,-414.0,-52.5,184.5,,
1_S8,10/05/2023,13:22:47.100,0.119,1.125,0.300,,,,,
1_S8,10/05/2023,13:22:47.200,0.050,1.125,0.175,,,,,
1_S8,10/05/2023,13:22:47.300,-0.019,1.125,0.088,,,,,
1_S8,10/05/2023,13:22:47.400,-0.088,1.100,-0.075,,,,,
1_S8,10/05/2023,13:22:47.500,-0.094,1.032,-0.250,-364.5,-267.0,399.0,,
1_S8,10/05/2023,13:22:47.600,-0.138,1.000,-0.350,,,,,
1_S8,10/05/2023,13:22:47.700,-0.188,1.000,-0.419,,,,,
1_S8,10/05/2023,13:22:47.800,-0.288,0.850,-0.588,,,,,
1_S8,10/05/2023,13:22:47.900,-0.313,0.688,-0.688,,,,,
1_S8,10/05/2023,13:22:48.000,-0.313,0.688,-0.813,-249.0,-241.5,633.0,,
1_S8,10/05/2023,13:22:48.100,-0.313,0.375,-0.938,,,,,
1_S8,10/05/2023,13:22:48.200,-0.313,0.125,-0.938,,,,,
1_S8,10/05/2023,13:22:48.300,-0.188,-0.125,-1.063,,,,,
1_S8,10/05/2023,13:22:48.400,-0.125,-0.313,-1.000,,,,,
1_S8,10/05/2023,13:22:48.500,-0.188,-0.563,-0.750,-267.0,84.0,952.5,,
1_S8,10/05/2023,13:22:48.600,-0.188,-0.625,-0.625,,,,,
1_S8,10/05/2023,13:22:48.700,-0.188,-0.875,-0.563,,,,,
1_S8,10/05/2023,13:22:48.800,-0.125,-0.938,-0.313,,,,,
1_S8,10/05/2023,13:22:48.900,0.063,-1.000,0.000,,,,,
1_S8,10/05/2023,13:22:49.000,0.063,-0.750,0.125,-261.0,454.5,751.5,25,
1_S8,10/05/2023,13:22:49.100,0.000,-0.750,0.375,,,,,
1_S8,10/05/2023,13:22:49.200,0.000,-0.750,0.563,,,,,
1_S8,10/05/2023,13:22:49.300,0.000,-0.750,0.625,,,,,
1_S8,10/05/2023,13:22:49.400,-0.063,-0.375,0.875,,,,,
1_S8,10/05/2023,13:22:49.500,-0.063,-0.313,0.938,-265.5,402.0,342.0,,
1_S8,10/05/2023,13:22:49.600,0.000,-0.063,0.813,,,,,
1_S8,10/05/2023,13:22:49.700,-0.063,0.438,1.063,,,,,
1_S8,10/05/2023,13:22:49.800,-0.063,0.563,0.938,,,,,
1_S8,10/05/2023,13:22:49.900,0.000,0.625,0.813,,,,,
1_S8,10/05/2023,13:22:50.000,0.063,0.750,0.750,-247.5,22.5,223.5,,
1_S8,10/05/2023,13:22:50.100,0.000,0.813,0.688,,,,,
1_S8,10/05/2023,13:22:50.200,0.000,1.000,0.688,,,,,
1_S8,10/05/2023,13:22:50.300,0.000,1.125,-0.188,,,,,
1_S8,10/05/2023,13:22:50.400,-0.063,1.000,-0.438,,,,,
1_S8,10/05/2023,13:22:50.500,0.063,1.125,-0.625,-235.5,-237.0,616.5,,
1_S8,10/05/2023,13:22:50.600,-0.125,0.813,-0.563,,,,,
1_S8,10/05/2023,13:22:50.700,-0.188,0.813,-0.813,,,,,
1_S8,10/05/2023,13:22:50.800,-0.188,0.250,-0.938,,,,,
1_S8,10/05/2023,13:22:50.900,-0.125,-0.313,-0.750,,,,,
1_S8,10/05/2023,13:22:51.000,-0.250,-0.375,-0.813,-132.0,151.5,871.5,,
1_S8,10/05/2023,13:22:51.100,-0.188,-0.500,-0.875,,,,,
1_S8,10/05/2023,13:22:51.200,-0.375,-0.750,-0.688,,,,,
1_S8,10/05/2023,13:22:51.300,-0.250,-0.813,-0.500,,,,,
1_S8,10/05/2023,13:22:51.400,-0.313,-0.875,-0.250,,,,,
1_S8,10/05/2023,13:22:51.500,-0.438,-1.063,-0.188,-90.0,363.0,717.0,,
1_S8,10/05/2023,13:22:51.600,-0.313,-0.938,0.000,,,,,
1_S8,10/05/2023,13:22:51.700,-0.313,-0.938,0.125,,,,,
1_S8,10/05/2023,13:22:51.800,-0.250,-0.938,0.125,,,,,
1_S8,10/05/2023,13:22:51.900,-0.188,-1.000,0.313,,,,,
1_S8,10/05/2023,13:22:52.000,-0.250,-0.750,0.375,-159.0,388.5,544.5,,
1_S8,10/05/2023,13:22:52.100,-0.244,-0.688,0.638,,,,,
1_S8,10/05/2023,13:22:52.200,-0.163,-0.650,0.775,,,,,
1_S8,10/05/2023,13:22:52.300,-0.063,-0.463,0.894,,,,,
1_S8,10/05/2023,13:22:52.400,-0.088,-0.400,0.938,,,,,
1_S8,10/05/2023,13:22:52.500,-0.188,-0.406,0.969,-166.5,225.0,288.0,,
1_S8,10/05/2023,13:22:52.600,-0.288,-0.263,0.925,,,,,
1_S8,10/05/2023,13:22:52.700,-0.269,0.031,0.832,,,,,
1_S8,10/05/2023,13:22:52.800,-0.350,0.125,0.863,,,,,
1_S8,10/05/2023,13:22:52.900,-0.438,0.250,1.000,,,,,
1_S8,10/05/2023,13:22:53.000,-0.375,-0.063,0.875,-88.5,51.0,319.5,,
1_S8,10/05/2023,13:22:53.100,-0.500,0.313,0.750,,,,,
1_S8,10/05/2023,13:22:53.200,-0.688,0.500,0.625,,,,,
1_S8,10/05/2023,13:22:53.300,-1.188,0.625,-0.438,,,,,
1_S8,10/05/2023,13:22:53.400,-0.625,0.813,0.375,,,,,
1_S8,10/05/2023,13:22:53.500,-0.563,0.938,0.313,-36.0,-67.5,553.5,,
1_S8,10/05/2023,13:22:53.600,-0.500,0.938,0.313,,,,,
1_S8,10/05/2023,13:22:53.700,-0.500,0.938,0.125,,,,,
1_S8,10/05/2023,13:22:53.800,-0.625,0.938,-0.125,,,,,
1_S8,10/05/2023,13:22:53.900,-0.688,0.875,-0.250,,,,,
1_S8,10/05/2023,13:22:54.000,-0.563,0.750,-0.438,-40.5,-15.0,705.0,27,
1_S8,10/05/2023,13:22:54.100,-0.625,0.563,-0.750,,,,,
1_S8,10/05/2023,13:22:54.200,-0.688,0.188,-0.750,,,,,
1_S8,10/05/2023,13:22:54.300,-0.688,0.125,-0.688,,,,,
1_S8,10/05/2023,13:22:54.400,-0.625,-0.125,-0.625,,,,,
1_S8,10/05/2023,13:22:54.500,-0.688,-0.313,-0.625,-94.5,319.5,690.0,,
1_S8,10/05/2023,13:22:54.600,-0.625,-0.500,-0.438,,,,,
1_S8,10/05/2023,13:22:54.700,-0.688,-0.688,-0.375,,,,,
1_S8,10/05/2023,13:22:54.800,-0.688,-0.688,-0.125,,,,,
1_S8,10/05/2023,13:22:54.900,-0.625,-0.813,0.000,,,,,
1_S8,10/05/2023,13:22:55.000,-0.625,-0.750,0.063,-196.5,370.5,394.5,,
1_S8,10/05/2023,13:22:55.100,-0.563,-0.813,0.000,,,,,
1_S8,10/05/2023,13:22:55.200,-0.563,-0.750,0.125,,,,,
1_S8,10/05/2023,13:22:55.300,-0.563,-0.938,0.063,,,,,
1_S8,10/05/2023,13:22:55.400,-0.563,-0.813,0.125,,,,,
1_S8,10/05/2023,13:22:55.500,-0.500,-0.813,0.313,-226.5,336.0,307.5,,
1_S8,10/05/2023,13:22:55.600,-0.563,-0.750,0.375,,,,,
1_S8,10/05/2023,13:22:55.700,-0.563,-0.688,0.500,,,,,
1_S8,10/05/2023,13:22:55.800,-0.500,-0.625,0.563,,,,,
1_S8,10/05/2023,13:22:55.900,-0.563,-0.625,0.625,,,,,
1_S8,10/05/2023,13:22:56.000,-0.563,-0.313,0.750,-208.5,79.5,235.5,,
1_S8,10/05/2023,13:22:56.100,-0.625,-0.163,0.875,,,,,
1_S8,10/05/2023,13:22:56.200,-0.613,0.125,0.875,,,,,
1_S8,10/05/2023,13:22:56.300,-0.506,0.431,0.857,,,,,
1_S8,10/05/2023,13:22:56.400,-0.325,0.688,0.663,,,,,
1_S8,10/05/2023,13:22:56.500,-0.250,0.938,0.313,-330.0,-277.5,541.5,,
1_S8,10/05/2023,13:22:56.600,-0.250,1.038,0.113,,,,,
1_S8,10/05/2023,13:22:56.700,-0.250,1.063,0.019,,,,,
1_S8,10/05/2023,13:22:56.800,-0.150,1.113,-0.200,,,,,
1_S8,10/05/2023,13:22:56.900,-0.125,1.063,-0.438,,,,,
1_S8,10/05/2023,13:22:57.000,-0.125,0.875,-0.563,-469.5,-123.0,900.0,,
1_S8,10/05/2023,13:22:57.100,-0.125,0.875,-0.625,,,,,
1_S8,10/05/2023,13:22:57.200,-0.125,0.688,-0.813,,,,,
1_S8,10/05/2023,13:22:57.300,-0.125,0.625,-0.875,,,,,
1_S8,10/05/2023,13:22:57.400,-0.125,0.500,-0.938,,,,,
1_S8,10/05/2023,13:22:57.500,-0.188,0.313,-0.938,-432.0,168.0,981.0,,
1_S8,10/05/2023,13:22:57.600,-0.188,0.250,-1.000,,,,,
1_S8,10/05/2023,13:22:57.700,-0.125,0.188,-1.000,,,,,
1_S8,10/05/2023,13:22:57.800,-0.250,0.000,-0.938,,,,,
1_S8,10/05/2023,13:22:57.900,-0.313,-0.125,-1.000,,,,,
1_S8,10/05/2023,13:22:58.000,-0.313,-0.188,-0.938,-465.0,360.0,921.0,,
1_S8,10/05/2023,13:22:58.100,-0.250,-0.250,-0.875,,,,,
1_S8,10/05/2023,13:22:58.200,-0.313,-0.438,-0.875,,,,,
1_S8,10/05/2023,13:22:58.300,-0.313,-0.438,-0.813,,,,,
1_S8,10/05/2023,13:22:58.400,-0.250,-0.563,-0.750,,,,,
1_S8,10/05/2023,13:22:58.500,-0.250,-0.688,-0.625,-495.0,471.0,754.5,,
1_S8,10/05/2023,13:22:58.600,-0.313,-0.750,-0.500,,,,,
1_S8,10/05/2023,13:22:58.700,-0.250,-0.813,-0.500,,,,,
1_S8,10/05/2023,13:22:58.800,-0.313,-0.813,-0.375,,,,,
1_S8,10/05/2023,13:22:58.900,-0.250,-0.938,-0.188,,,,,
1_S8,10/05/2023,13:22:59.000,-0.313,-0.938,0.000,-454.5,507.0,492.0,27,
1_S8,10/05/2023,13:22:59.100,-0.500,-1.188,0.000,,,,,
1_S8,10/05/2023,13:22:59.200,-0.500,-0.750,0.438,,,,,
1_S8,10/05/2023,13:22:59.300,-0.563,-0.688,0.438,,,,,
1_S8,10/05/2023,13:22:59.400,-0.563,-0.500,0.375,,,,,
1_S8,10/05/2023,13:22:59.500,-0.438,-0.500,0.563,-427.5,298.5,237.0,,
1_S8,10/05/2023,13:22:59.600,-0.375,-0.250,0.750,,,,,
1_S8,10/05/2023,13:22:59.700,-0.313,-0.313,0.313,,,,,
1_S8,10/05/2023,13:22:59.800,-0.375,-0.125,0.938,,,,,
1_S8,10/05/2023,13:22:59.900,-0.250,0.000,0.875,,,,,
1_S8,10/05/2023,13:23:00.000,-0.313,0.125,0.938,-549.0,48.0,204.0,,
1_S8,10/05/2023,13:23:00.100,-0.188,0.188,1.000,,,,,
1_S8,10/05/2023,13:23:00.200,-0.188,0.125,1.063,,,,,
1_S8,10/05/2023,13:23:00.300,-0.125,0.188,1.000,,,,,
1_S8,10/05/2023,13:23:00.400,-0.063,0.250,1.000,,,,,
1_S8,10/05/2023,13:23:00.500,0.000,0.250,0.938,-648.0,31.5,246.0,,
1_S8,10/05/2023,13:23:00.600,0.063,0.375,1.063,,,,,
1_S8,10/05/2023,13:23:00.700,0.250,0.188,0.875,,,,,
1_S8,10/05/2023,13:23:00.800,0.500,0.313,0.875,,,,,
1_S8,10/05/2023,13:23:00.900,0.438,0.188,0.813,,,,,
1_S8,10/05/2023,13:23:01.000,0.375,0.313,0.875,-756.0,138.0,360.0,,
1_S8,10/05/2023,13:23:01.100,0.238,0.288,0.938,,,,,
1_S8,10/05/2023,13:23:01.200,0.000,0.088,0.925,,,,,
1_S8,10/05/2023,13:23:01.300,-0.556,0.188,0.838,,,,,
1_S8,10/05/2023,13:23:01.400,-0.713,0.163,0.750,,,,,
1_S8,10/05/2023,13:23:01.500,-0.844,0.125,0.594,-321.0,147.0,204.0,,
1_S8,10/05/2023,13:23:01.600,-0.975,0.125,0.400,,,,,
1_S8,10/05/2023,13:23:01.700,-1.000,0.169,0.244,,,,,
1_S8,10/05/2023,13:23:01.800,-1.000,0.088,0.088,,,,,
1_S8,10/05/2023,13:23:01.900,-1.000,0.125,-0.188,,,,,
1_S8,10/05/2023,13:23:02.000,-0.938,0.188,-0.313,-25.5,175.5,433.5,,
1_S8,10/05/2023,13:23:02.100,-0.875,0.250,-0.500,,,,,
1_S8,10/05/2023,13:23:02.200,-0.750,0.313,-0.688,,,,,
1_S8,10/05/2023,13:23:02.300,-0.750,0.375,-0.750,,,,,
1_S8,10/05/2023,13:23:02.400,-0.500,0.313,-0.813,,,,,
1_S8,10/05/2023,13:23:02.500,-0.438,0.313,-0.875,-60.0,129.0,816.0,,
1_S8,10/05/2023,13:23:02.600,-0.313,0.375,-0.875,,,,,
1_S8,10/05/2023,13:23:02.700,-0.125,0.375,-0.875,,,,,
1_S8,10/05/2023,13:23:02.800,0.000,0.438,-0.938,,,,,
1_S8,10/05/2023,13:23:02.900,0.063,0.438,-0.938,,,,,
1_S8,10/05/2023,13:23:03.000,0.125,0.250,-0.938,-276.0,99.0,952.5,,
1_S8,10/05/2023,13:23:03.100,0.313,0.313,-0.875,,,,,
1_S8,10/05/2023,13:23:03.200,0.438,0.188,-0.875,,,,,
1_S8,10/05/2023,13:23:03.300,0.688,0.063,-0.813,,,,,
1_S8,10/05/2023,13:23:03.400,0.688,0.000,-0.750,,,,,
1_S8,10/05/2023,13:23:03.500,0.813,-0.063,-0.500,-543.0,199.5,967.5,,
1_S8,10/05/2023,13:23:03.600,0.875,-0.250,-0.375,,,,,
1_S8,10/05/2023,13:23:03.700,0.875,-0.188,-0.250,,,,,
1_S8,10/05/2023,13:23:03.800,0.875,-0.375,0.125,,,,,
1_S8,10/05/2023,13:23:03.900,0.875,-0.313,0.125,,,,,
1_S8,10/05/2023,13:23:04.000,0.875,-0.438,0.313,-765.0,322.5,748.5,27,
1_S8,10/05/2023,13:23:04.100,0.625,-0.313,0.625,,,,,
1_S8,10/05/2023,13:23:04.200,0.563,-0.500,0.750,,,,,
1_S8,10/05/2023,13:23:04.300,0.313,-0.375,0.813,,,,,
1_S8,10/05/2023,13:23:04.400,0.063,-0.313,0.938,,,,,
1_S8,10/05/2023,13:23:04.500,-0.188,-0.313,0.938,-565.5,423.0,351.0,,
1_S8,10/05/2023,13:23:04.600,-0.500,-0.125,0.938,,,,,
1_S8,10/05/2023,13:23:04.700,-0.625,-0.125,0.813,,,,,
1_S8,10/05/2023,13:23:04.800,-0.625,0.063,0.875,,,,,
1_S8,10/05/2023,13:23:04.900,-0.625,-0.125,0.750,,,,,
1_S8,10/05/2023,13:23:05.000,-0.875,-0.125,0.563,-262.5,336.0,289.5,,
1_S8,10/05/2023,13:23:05.100,-0.813,-0.188,0.500,,,,,
1_S8,10/05/2023,13:23:05.200,-0.875,-0.188,0.500,,,,,
1_S8,10/05/2023,13:23:05.300,-0.938,-0.438,0.188,,,,,
1_S8,10/05/2023,13:23:05.400,-0.875,-0.438,0.125,,,,,
1_S8,10/05/2023,13:23:05.500,-0.875,-0.375,-0.125,-217.5,454.5,559.5,,
1_S8,10/05/2023,13:23:05.600,-0.813,-0.375,-0.250,,,,,
1_S8,10/05/2023,13:23:05.700,-0.875,-0.188,-0.438,,,,,
1_S8,10/05/2023,13:23:05.800,-0.875,-0.188,-0.563,,,,,
1_S8,10/05/2023,13:23:05.900,-0.813,-0.188,-0.625,,,,,
1_S8,10/05/2023,13:23:06.000,-0.750,-0.250,-0.625,-189.0,417.0,741.0,,
1_S8,10/05/2023,13:23:06.100,-0.807,-0.188,-0.688,,,,,
1_S8,10/05/2023,13:23:06.200,-0.725,-0.175,-0.713,,,,,
1_S8,10/05/2023,13:23:06.300,-0.588,-0.125,-0.832,,,,,
1_S8,10/05/2023,13:23:06.400,-0.475,-0.150,-0.875,,,,,
1_S8,10/05/2023,13:23:06.500,-0.406,-0.156,-0.907,-246.0,399.0,847.5,,
1_S8,10/05/2023,13:23:06.600,-0.188,-0.125,-0.975,,,,,
1_S8,10/05/2023,13:23:06.700,-0.106,-0.169,-0.957,,,,,
1_S8,10/05/2023,13:23:06.800,-0.025,-0.238,-0.938,,,,,
1_S8,10/05/2023,13:23:06.900,0.063,-0.313,-0.938,,,,,
1_S8,10/05/2023,13:23:07.000,0.188,-0.313,-0.938,-438.0,429.0,852.0,,
1_S8,10/05/2023,13:23:07.100,0.438,-0.188,-0.750,,,,,
1_S8,10/05/2023,13:23:07.200,0.625,-0.250,-0.688,,,,,
1_S8,10/05/2023,13:23:07.300,0.625,-0.125,-0.750,,,,,
1_S8,10/05/2023,13:23:07.400,0.813,-0.125,-0.500,,,,,
1_S8,10/05/2023,13:23:07.500,0.813,-0.125,-0.438,-685.5,390.0,780.0,,
1_S8,10/05/2023,13:23:07.600,1.000,0.000,-0.125,,,,,
1_S8,10/05/2023,13:23:07.700,0.938,-0.125,0.125,,,,,
1_S8,10/05/2023,13:23:07.800,0.875,-0.125,0.250,,,,,
1_S8,10/05/2023,13:23:07.900,0.813,-0.125,0.375,,,,,
1_S8,10/05/2023,13:23:08.000,0.813,-0.125,0.438,-718.5,385.5,504.0,,
1_S8,10/05/2023,13:23:08.100,0.813,-0.125,0.438,,,,,
1_S8,10/05/2023,13:23:08.200,0.813,-0.250,0.375,,,,,
1_S8,10/05/2023,13:23:08.300,0.813,-0.188,0.438,,,,,
1_S8,10/05/2023,13:23:08.400,0.750,-0.375,0.500,,,,,
1_S8,10/05/2023,13:23:08.500,0.750,-0.313,0.563,-636.0,442.5,471.0,,
1_S8,10/05/2023,13:23:08.600,0.563,-0.250,0.750,,,,,
1_S8,10/05/2023,13:23:08.700,0.438,-0.250,0.813,,,,,
1_S8,10/05/2023,13:23:08.800,0.313,-0.375,0.813,,,,,
1_S8,10/05/2023,13:23:08.900,0.250,-0.313,0.875,,,,,
1_S8,10/05/2023,13:23:09.000,0.188,-0.250,0.938,-433.5,429.0,367.5,27,
1_S8,10/05/2023,13:23:09.100,0.063,-0.250,1.000,,,,,
1_S8,10/05/2023,13:23:09.200,0.125,-0.188,1.000,,,,,
1_S8,10/05/2023,13:23:09.300,-0.063,-0.188,1.063,,,,,
1_S8,10/05/2023,13:23:09.400,-0.313,-0.188,0.875,,,,,
1_S8,10/05/2023,13:23:09.500,-0.500,-0.313,0.875,-217.5,411.0,417.0,,
1_S8,10/05/2023,13:23:09.600,-0.563,-0.188,0.750,,,,,
1_S8,10/05/2023,13:23:09.700,-0.750,-0.250,0.688,,,,,
1_S8,10/05/2023,13:23:09.800,-0.750,-0.188,0.625,,,,,
1_S8,10/05/2023,13:23:09.900,-0.813,-0.250,0.625,,,,,
1_S8,10/05/2023,13:23:10.000,-0.875,-0.313,0.438,-94.5,372.0,594.0,,
1_S8,10/05/2023,13:23:10.100,-0.875,-0.313,0.375,,,,,
1_S8,10/05/2023,13:23:10.200,-0.875,-0.313,0.375,,,,,
1_S8,10/05/2023,13:23:10.300,-0.938,-0.250,0.188,,,,,
1_S8,10/05/2023,13:23:10.400,-1.000,-0.250,0.063,,,,,
1_S8,10/05/2023,13:23:10.500,-1.000,-0.188,0.000,-85.5,190.5,813.0,,
1_S8,10/05/2023,13:23:10.600,-1.000,-0.188,0.000,,,,,
1_S8,10/05/2023,13:23:10.700,-1.063,-0.313,-0.500,,,,,
1_S8,10/05/2023,13:23:10.800,-0.938,-0.125,-0.375,,,,,
1_S8,10/05/2023,13:23:10.900,-0.875,-0.188,-0.438,,,,,
1_S8,10/05/2023,13:23:11.000,-0.875,-0.188,-0.563,-256.5,156.0,957.0,,
1_S8,10/05/2023,13:23:11.100,-0.744,-0.181,-0.631,,,,,
1_S8,10/05/2023,13:23:11.200,-0.675,-0.138,-0.688,,,,,
1_S8,10/05/2023,13:23:11.300,-0.625,-0.188,-0.725,,,,,
1_S8,10/05/2023,13:23:11.400,-0.575,-0.163,-0.863,,,,,
1_S8,10/05/2023,13:23:11.500,-0.469,-0.125,-0.907,-471.0,144.0,994.5,,
1_S8,10/05/2023,13:23:11.600,-0.438,-0.125,-0.875,,,,,
1_S8,10/05/2023,13:23:11.700,-0.481,-0.125,-0.875,,,,,
1_S8,10/05/2023,13:23:11.800,-0.400,-0.125,-0.925,,,,,
1_S8,10/05/2023,13:23:11.900,-0.313,-0.125,-0.938,,,,,
1_S8,10/05/2023,13:23:12.000,-0.125,-0.125,-0.938,-556.5,160.5,970.5,,
1_S8,10/05/2023,13:23:12.100,-0.250,0.125,-0.938,,,,,
1_S8,10/05/2023,13:23:12.200,-0.063,0.000,-1.000,,,,,
1_S8,10/05/2023,13:23:12.300,-0.063,-0.063,-1.000,,,,,
1_S8,10/05/2023,13:23:12.400,0.063,0.063,-0.938,,,,,
1_S8,10/05/2023,13:23:12.500,0.125,0.063,-1.000,-670.5,72.0,915.0,,
1_S8,10/05/2023,13:23:12.600,0.188,0.063,-0.938,,,,,
1_S8,10/05/2023,13:23:12.700,0.313,0.063,-0.938,,,,,
1_S8,10/05/2023,13:23:12.800,0.438,0.063,-0.938,,,,,
1_S8,10/05/2023,13:23:12.900,0.438,0.063,-0.875,,,,,
1_S8,10/05/2023,13:23:13.000,0.375,0.125,-0.875,-768.0,48.0,780.0,,
1_S8,10/05/2023,13:23:13.100,0.500,0.063,-0.813,,,,,
1_S8,10/05/2023,13:23:13.200,0.625,0.063,-0.750,,,,,
1_S8,10/05/2023,13:23:13.300,0.688,0.000,-0.625,,,,,
1_S8,10/05/2023,13:23:13.400,1.000,0.188,-0.313,,,,,
1_S8,10/05/2023,13:23:13.500,1.000,0.125,-0.313,-840.0,43.5,529.5,,
1_S8,10/05/2023,13:23:13.600,0.813,-0.125,-0.125,,,,,
1_S8,10/05/2023,13:23:13.700,1.000,-0.125,0.063,,,,,
1_S8,10/05/2023,13:23:13.800,0.875,-0.125,0.188,,,,,
1_S8,10/05/2023,13:23:13.900,0.813,-0.188,0.375,,,,,
1_S8,10/05/2023,13:23:14.000,0.750,-0.188,0.625,-637.5,135.0,235.5,27,
1_S8,10/05/2023,13:23:14.100,0.750,-0.188,0.750,,,,,
1_S8,10/05/2023,13:23:14.200,0.563,-0.125,0.750,,,,,
1_S8,10/05/2023,13:23:14.300,0.375,-0.125,0.938,,,,,
1_S8,10/05/2023,13:23:14.400,0.313,-0.125,0.938,,,,,
1_S8,10/05/2023,13:23:14.500,0.250,-0.188,0.875,-316.5,96.0,181.5,,
1_S8,10/05/2023,13:23:14.600,0.250,-0.125,1.000,,,,,
1_S8,10/05/2023,13:23:14.700,0.188,-0.063,0.938,,,,,
1_S8,10/05/2023,13:23:14.800,0.125,-0.125,1.000,,,,,
1_S8,10/05/2023,13:23:14.900,0.063,-0.125,1.000,,,,,
1_S8,10/05/2023,13:23:15.000,-0.063,-0.250,1.063,-225.0,94.5,217.5,,
1_S8,10/05/2023,13:23:15.100,-0.200,-0.200,0.944,,,,,
1_S8,10/05/2023,13:23:15.200,-0.338,-0.313,0.988,,,,,
1_S8,10/05/2023,13:23:15.300,-0.438,-0.294,0.919,,,,,
1_S8,10/05/2023,13:23:15.400,-0.463,-0.200,0.850,,,,,
1_S8,10/05/2023,13:23:15.500,-0.594,-0.125,0.782,-81.0,43.5,327.0,,
1_S8,10/05/2023,13:23:15.600,-0.725,-0.088,0.675,,,,,
1_S8,10/05/2023,13:23:15.700,-0.838,-0.106,0.538,,,,,
1_S8,10/05/2023,13:23:15.800,-0.975,0.025,0.350,,,,,
1_S8,10/05/2023,13:23:15.900,-1.000,0.063,0.313,,,,,
1_S8,10/05/2023,13:23:16.000,-1.000,0.063,0.250,-69.0,-93.0,523.5,,
1_S8,10/05/2023,13:23:16.100,-1.063,0.125,0.063,,,,,
1_S8,10/05/2023,13:23:16.200,-1.063,0.063,0.125,,,,,
1_S8,10/05/2023,13:23:16.300,-1.000,0.188,0.063,,,,,
1_S8,10/05/2023,13:23:16.400,-1.000,0.063,-0.125,,,,,
1_S8,10/05/2023,13:23:16.500,-0.938,-0.063,-0.313,-70.5,-121.5,628.5,,
1_S8,10/05/2023,13:23:16.600,-0.750,0.063,-0.750,,,,,
1_S8,10/05/2023,13:23:16.700,-0.625,0.063,-0.875,,,,,
1_S8,10/05/2023,13:23:16.800,-0.375,0.125,-0.938,,,,,
1_S8,10/05/2023,13:23:16.900,-0.125,0.063,-1.063,,,,,
1_S8,10/05/2023,13:23:17.000,0.125,0.125,-1.000,-415.5,-94.5,909.0,,
1_S8,10/05/2023,13:23:17.100,0.188,0.125,-0.938,,,,,
1_S8,10/05/2023,13:23:17.200,0.375,0.063,-0.938,,,,,
1_S8,10/05/2023,13:23:17.300,0.688,0.125,-0.688,,,,,
1_S8,10/05/2023,13:23:17.400,0.750,0.188,-0.500,,,,,
1_S8,10/05/2023,13:23:17.500,0.813,0.125,-0.375,-714.0,-121.5,703.5,,
1_S8,10/05/2023,13:23:17.600,0.875,0.188,-0.375,,,,,
1_S8,10/05/2023,13:23:17.700,0.813,0.125,-0.125,,,,,
1_S8,10/05/2023,13:23:17.800,1.000,0.125,-0.125,,,,,
1_S8,10/05/2023,13:23:17.900,1.063,0.063,0.063,,,,,
1_S8,10/05/2023,13:23:18.000,1.000,0.063,0.125,-772.5,-88.5,540.0,,
1_S8,10/05/2023,13:23:18.100,0.938,0.125,0.125,,,,,
1_S8,10/05/2023,13:23:18.200,0.875,0.188,0.375,,,,,
1_S8,10/05/2023,13:23:18.300,0.875,0.188,0.375,,,,,
1_S8,10/05/2023,13:23:18.400,0.875,0.188,0.375,,,,,
1_S8,10/05/2023,13:23:18.500,0.688,0.125,0.625,-693.0,-132.0,415.5,,
1_S8,10/05/2023,13:23:18.600,0.625,0.125,0.813,,,,,
1_S8,10/05/2023,13:23:18.700,0.500,0.063,0.813,,,,,
1_S8,10/05/2023,13:23:18.800,0.375,0.125,0.875,,,,,
1_S8,10/05/2023,13:23:18.900,0.125,0.125,1.000,,,,,
1_S8,10/05/2023,13:23:19.000,0.188,0.063,0.875,-478.5,-120.0,250.5,28,
1_S8,10/05/2023,13:23:19.100,-0.063,0.125,0.938,,,,,
1_S8,10/05/2023,13:23:19.200,-0.063,0.188,1.125,,,,,
1_S8,10/05/2023,13:23:19.300,-0.188,0.063,0.938,,,,,
1_S8,10/05/2023,13:23:19.400,-0.750,0.063,0.875,,,,,
1_S8,10/05/2023,13:23:19.500,-0.688,0.063,0.750,-244.5,-85.5,282.0,,
1_S8,10/05/2023,13:23:19.600,-0.688,-0.063,0.750,,,,,
1_S8,10/05/2023,13:23:19.700,-0.813,0.125,0.500,,,,,
1_S8,10/05/2023,13:23:19.800,-0.938,0.188,0.375,,,,,
1_S8,10/05/2023,13:23:19.900,-0.938,0.250,0.438,,,,,
1_S8,10/05/2023,13:23:20.000,-1.000,0.188,0.188,-126.0,-96.0,370.5,,
1_S8,10/05/2023,13:23:20.100,-1.000,0.194,-0.206,,,,,
1_S8,10/05/2023,13:23:20.200,-0.975,0.225,-0.400,,,,,
1_S8,10/05/2023,13:23:20.300,-0.857,0.125,-0.538,,,,,
1_S8,10/05/2023,13:23:20.400,-0.788,0.100,-0.650,,,,,
1_S8,10/05/2023,13:23:20.500,-0.719,0.063,-0.719,-81.0,-79.5,738.0,,
1_S8,10/05/2023,13:23:20.600,-0.688,0.100,-0.750,,,,,
1_S8,10/05/2023,13:23:20.700,-0.556,0.081,-0.838,,,,,
1_S8,10/05/2023,13:23:20.800,-0.250,0.063,-0.875,,,,,
1_S8,10/05/2023,13:23:20.900,-0.063,0.000,-1.000,,,,,
1_S8,10/05/2023,13:23:21.000,0.125,-0.063,-0.938,-246.0,-48.0,913.5,,
1_S8,10/05/2023,13:23:21.100,0.250,-0.125,-0.938,,,,,
1_S8,10/05/2023,13:23:21.200,0.375,0.000,-0.938,,,,,
1_S8,10/05/2023,13:23:21.300,0.563,0.000,-0.875,,,,,
1_S8,10/05/2023,13:23:21.400,0.750,0.125,-0.750,,,,,
1_S8,10/05/2023,13:23:21.500,0.688,-0.125,-0.563,-532.5,-10.5,963.0,,
1_S8,10/05/2023,13:23:21.600,0.875,0.000,-0.313,,,,,
1_S8,10/05/2023,13:23:21.700,0.938,-0.125,-0.125,,,,,
1_S8,10/05/2023,13:23:21.800,0.875,-0.063,0.125,,,,,
1_S8,10/05/2023,13:23:21.900,0.875,0.063,0.125,,,,,
1_S8,10/05/2023,13:23:22.000,0.938,0.063,0.188,-810.0,69.0,760.5,,
1_S8,10/05/2023,13:23:22.100,0.875,0.063,0.375,,,,,
1_S8,10/05/2023,13:23:22.200,0.813,0.063,0.438,,,,,
1_S8,10/05/2023,13:23:22.300,0.813,0.063,0.563,,,,,
1_S8,10/05/2023,13:23:22.400,0.750,0.000,0.625,,,,,
1_S8,10/05/2023,13:23:22.500,0.688,0.000,0.688,-838.5,60.0,526.5,,
1_S8,10/05/2023,13:23:22.600,0.625,0.000,0.813,,,,,
1_S8,10/05/2023,13:23:22.700,0.563,-0.063,0.813,,,,,
1_S8,10/05/2023,13:23:22.800,0.563,0.000,0.813,,,,,
1_S8,10/05/2023,13:23:22.900,0.500,-0.125,0.875,,,,,
1_S8,10/05/2023,13:23:23.000,0.375,-0.125,0.813,-793.5,55.5,399.0,,
1_S8,10/05/2023,13:23:23.100,0.375,0.000,0.938,,,,,
1_S8,10/05/2023,13:23:23.200,0.063,-0.125,0.938,,,,,
1_S8,10/05/2023,13:23:23.300,-0.125,-0.125,1.000,,,,,
1_S8,10/05/2023,13:23:23.400,-0.250,0.000,1.000,,,,,
1_S8,10/05/2023,13:23:23.500,-0.375,0.000,1.000,-538.5,106.5,199.5,,
1_S8,10/05/2023,13:23:23.600,-0.438,-0.063,0.938,,,,,
1_S8,10/05/2023,13:23:23.700,-0.500,-0.125,0.875,,,,,
1_S8,10/05/2023,13:23:23.800,-0.625,0.063,0.875,,,,,
1_S8,10/05/2023,13:23:23.900,-0.688,0.000,0.813,,,,,
1_S8,10/05/2023,13:23:24.000,-0.750,0.063,0.688,-331.5,90.0,175.5,27,
1_S8,10/05/2023,13:23:24.100,-0.750,0.063,0.625,,,,,
1_S8,10/05/2023,13:23:24.200,-0.813,0.063,0.563,,,,,
1_S8,10/05/2023,13:23:24.300,-1.000,0.125,0.438,,,,,
1_S8,10/05/2023,13:23:24.400,-1.000,0.063,0.188,,,,,
1_S8,10/05/2023,13:23:24.500,-1.063,0.000,0.063,-94.5,78.0,313.5,,
1_S8,10/05/2023,13:23:24.600,-1.000,0.063,0.125,,,,,
1_S8,10/05/2023,13:23:24.700,-1.000,0.063,0.125,,,,,
1_S8,10/05/2023,13:23:24.800,-1.000,0.000,0.063,,,,,
1_S8,10/05/2023,13:23:24.900,-1.000,0.063,-0.125,,,,,
1_S8,10/05/2023,13:23:25.000,-1.000,0.063,-0.125,-43.5,76.5,387.0,,
1_S8,10/05/2023,13:23:25.100,-1.000,0.056,-0.138,,,,,
1_S8,10/05/2023,13:23:25.200,-1.000,0.000,-0.263,,,,,
1_S8,10/05/2023,13:23:25.300,-0.982,0.019,-0.369,,,,,
1_S8,10/05/2023,13:23:25.400,-0.913,0.063,-0.525,,,,,
1_S8,10/05/2023,13:23:25.500,-0.844,0.031,-0.563,15.0,79.5,583.5,,
1_S8,10/05/2023,13:23:25.600,-0.813,0.038,-0.600,,,,,
1_S8,10/05/2023,13:23:25.700,-0.813,0.019,-0.669,,,,,
1_S8,10/05/2023,13:23:25.800,-0.763,0.050,-0.688,,,,,
1_S8,10/05/2023,13:23:25.900,-0.750,0.000,-0.625,,,,,
1_S8,10/05/2023,13:23:26.000,-0.688,0.063,-0.750,7.5,63.0,660.0,,
1_S8,10/05/2023,13:23:26.100,-0.625,0.063,-0.813,,,,,
1_S8,10/05/2023,13:23:26.200,-0.688,0.125,-0.813,,,,,
1_S8,10/05/2023,13:23:26.300,-0.688,0.125,-0.875,,,,,
1_S8,10/05/2023,13:23:26.400,-0.625,0.063,-0.813,,,,,
1_S8,10/05/2023,13:23:26.500,-0.500,0.063,-0.813,-12.0,60.0,739.5,,
1_S8,10/05/2023,13:23:26.600,-0.375,0.063,-1.000,,,,,
1_S8,10/05/2023,13:23:26.700,-0.313,0.000,-1.000,,,,,
1_S8,10/05/2023,13:23:26.800,-0.250,0.063,-1.000,,,,,
1_S8,10/05/2023,13:23:26.900,-0.188,0.063,-1.000,,,,,
1_S8,10/05/2023,13:23:27.000,-0.125,0.063,-1.000,-129.0,67.5,885.0,,
1_S8,10/05/2023,13:23:27.100,-0.063,0.000,-1.063,,,,,
1_S8,10/05/2023,13:23:27.200,-0.063,0.063,-1.000,,,,,
1_S8,10/05/2023,13:23:27.300,0.125,0.000,-1.000,,,,,
1_S8,10/05/2023,13:23:27.400,0.063,0.000,-0.938,,,,,
1_S8,10/05/2023,13:23:27.500,0.188,0.000,-0.938,-255.0,76.5,964.5,,
1_S8,10/05/2023,13:23:27.600,0.313,-0.125,-0.875,,,,,
1_S8,10/05/2023,13:23:27.700,0.438,-0.125,-0.875,,,,,
1_S8,10/05/2023,13:23:27.800,0.500,-0.125,-0.813,,,,,
1_S8,10/05/2023,13:23:27.900,0.563,-0.188,-0.750,,,,,
1_S8,10/05/2023,13:23:28.000,0.688,-0.125,-0.688,-499.5,190.5,976.5,,
1_S8,10/05/2023,13:23:28.100,0.688,-0.188,-0.500,,,,,
1_S8,10/05/2023,13:23:28.200,0.813,-0.188,-0.313,,,,,
1_S8,10/05/2023,13:23:28.300,0.938,-0.188,-0.063,,,,,
1_S8,10/05/2023,13:23:28.400,0.875,-0.250,-0.063,,,,,
1_S8,10/05/2023,13:23:28.500,0.875,-0.250,0.063,-739.5,252.0,826.5,,
1_S8,10/05/2023,13:23:28.600,0.938,-0.250,0.188,,,,,
1_S8,10/05/2023,13:23:28.700,0.875,-0.375,0.188,,,,,
1_S8,10/05/2023,13:23:28.800,0.875,-0.250,0.250,,,,,
1_S8,10/05/2023,13:23:28.900,0.875,-0.250,0.375,,,,,
1_S8,10/05/2023,13:23:29.000,0.750,-0.250,0.438,-807.0,256.5,667.5,28,
1_S8,10/05/2023,13:23:29.100,0.688,-0.188,0.500,,,,,
1_S8,10/05/2023,13:23:29.200,0.750,-0.250,0.563,,,,,
1_S8,10/05/2023,13:23:29.300,0.688,-0.188,0.625,,,,,
1_S8,10/05/2023,13:23:29.400,0.563,-0.250,0.625,,,,,
1_S8,10/05/2023,13:23:29.500,0.563,-0.188,0.813,-775.5,297.0,499.5,,
1_S8,10/05/2023,13:23:29.600,0.438,-0.188,0.875,,,,,
1_S8,10/05/2023,13:23:29.700,0.188,-0.125,0.938,,,,,
1_S8,10/05/2023,13:23:29.800,0.063,-0.063,0.938,,,,,
1_S8,10/05/2023,13:23:29.900,0.125,-0.188,1.063,,,,,
1_S8,10/05/2023,13:23:30.000,0.125,-0.188,1.063,-646.5,334.5,334.5,,
1_S8,10/05/2023,13:23:30.100,0.056,-0.131,0.944,,,,,
1_S8,10/05/2023,13:23:30.200,-0.013,-0.188,1.000,,,,,
1_S8,10/05/2023,13:23:30.300,-0.081,-0.169,0.982,,,,,
1_S8,10/05/2023,13:23:30.400,-0.175,-0.125,0.938,,,,,
1_S8,10/05/2023,13:23:30.500,-0.250,-0.125,0.969,-540.0,364.5,295.5,,
1_S8,10/05/2023,13:23:30.600,-0.250,-0.238,0.963,,,,,
1_S8,10/05/2023,13:23:30.700,-0.381,-0.050,0.894,,,,,
1_S8,10/05/2023,13:23:30.800,-0.588,0.013,0.875,,,,,
1_S8,10/05/2023,13:23:30.900,-0.750,0.063,0.813,,,,,
1_S8,10/05/2023,13:23:31.000,-0.813,-0.125,0.625,-330.0,285.0,234.0,,
1_S8,10/05/2023,13:23:31.100,-0.875,-0.125,0.438,,,,,
1_S8,10/05/2023,13:23:31.200,-0.938,-0.125,0.375,,,,,
1_S8,10/05/2023,13:23:31.300,-1.000,-0.188,0.125,,,,,
1_S8,10/05/2023,13:23:31.400,-1.000,-0.250,0.125,,,,,
1_S8,10/05/2023,13:23:31.500,-0.938,-0.313,-0.125,-108.0,325.5,417.0,,
1_S8,10/05/2023,13:23:31.600,-0.938,-0.375,-0.250,,,,,
1_S8,10/05/2023,13:23:31.700,-0.875,-0.313,-0.313,,,,,
1_S8,10/05/2023,13:23:31.800,-0.875,-0.188,-0.375,,,,,
1_S8,10/05/2023,13:23:31.900,-0.875,-0.313,-0.438,,,,,
1_S8,10/05/2023,13:23:32.000,-0.875,-0.313,-0.375,-123.0,397.5,597.0,,
1_S8,10/05/2023,13:23:32.100,-0.875,-0.375,-0.375,,,,,
1_S8,10/05/2023,13:23:32.200,-0.938,-0.313,-0.438,,,,,
1_S8,10/05/2023,13:23:32.300,-0.750,-0.563,-0.438,,,,,
1_S8,10/05/2023,13:23:32.400,-0.750,-0.563,-0.500,,,,,
1_S8,10/05/2023,13:23:32.500,-0.625,-0.438,-0.563,-234.0,474.0,652.5,,
1_S8,10/05/2023,13:23:32.600,-0.625,-0.438,-0.688,,,,,
1_S8,10/05/2023,13:23:32.700,-0.625,-0.438,-0.813,,,,,
1_S8,10/05/2023,13:23:32.800,-0.563,-0.313,-1.063,,,,,
1_S8,10/05/2023,13:23:32.900,-0.375,-0.188,-0.813,,,,,
1_S8,10/05/2023,13:23:33.000,-0.438,-0.188,-0.813,-259.5,426.0,786.0,,
1_S8,10/05/2023,13:23:33.100,-0.313,-0.250,-0.938,,,,,
1_S8,10/05/2023,13:23:33.200,-0.250,-0.313,-1.000,,,,,
1_S8,10/05/2023,13:23:33.300,-0.063,-0.313,-0.938,,,,,
1_S8,10/05/2023,13:23:33.400,0.063,-0.375,-1.000,,,,,
1_S8,10/05/2023,13:23:33.500,0.375,-0.250,-0.938,-462.0,399.0,880.5,,
1_S8,10/05/2023,13:23:33.600,0.563,-0.188,-0.813,,,,,
1_S8,10/05/2023,13:23:33.700,0.625,-0.188,-0.688,,,,,
1_S8,10/05/2023,13:23:33.800,0.750,-0.188,-0.563,,,,,
1_S8,10/05/2023,13:23:33.900,0.813,-0.188,-0.500,,,,,
1_S8,10/05/2023,13:23:34.000,0.813,-0.188,-0.438,-636.0,409.5,786.0,28,
1_S8,10/05/2023,13:23:34.100,0.875,-0.250,-0.313,,,,,
1_S8,10/05/2023,13:23:34.200,0.875,-0.313,-0.188,,,,,
1_S8,10/05/2023,13:23:34.300,0.875,-0.313,0.000,,,,,
1_S8,10/05/2023,13:23:34.400,0.875,-0.375,0.000,,,,,
1_S8,10/05/2023,13:23:34.500,0.750,-0.375,0.125,-615.0,471.0,604.5,,
1_S8,10/05/2023,13:23:34.600,0.750,-0.438,0.250,,,,,
1_S8,10/05/2023,13:23:34.700,0.688,-0.563,0.375,,,,,
1_S8,10/05/2023,13:23:34.800,0.625,-0.563,0.313,,,,,
1_S8,10/05/2023,13:23:34.900,0.563,-0.688,0.438,,,,,
1_S8,10/05/2023,13:23:35.000,0.375,-0.625,0.500,-463.5,501.0,562.5,,
1_S8,10/05/2023,13:23:35.100,0.250,-0.756,0.438,,,,,
1_S8,10/05/2023,13:23:35.200,0.213,-0.800,0.450,,,,,
1_S8,10/05/2023,13:23:35.300,0.025,-0.788,0.500,,,,,
1_S8,10/05/2023,13:23:35.400,-0.163,-0.875,0.525,,,,,
1_S8,10/05/2023,13:23:35.500,-0.375,-0.782,0.594,-160.5,421.5,573.0,,
1_S8,10/05/2023,13:23:35.600,-0.513,-0.613,0.588,,,,,
1_S8,10/05/2023,13:23:35.700,-0.738,-0.563,0.431,,,,,
1_S8,10/05/2023,13:23:35.800,-0.813,-0.563,0.325,,,,,
1_S8,10/05/2023,13:23:35.900,-0.813,-0.563,0.313,,,,,
1_S8,10/05/2023,13:23:36.000,-0.813,-0.438,0.250,-28.5,240.0,685.5,,
1_S8,10/05/2023,13:23:36.100,-0.938,-0.563,0.313,,,,,
1_S8,10/05/2023,13:23:36.200,-0.938,-0.438,0.125,,,,,
1_S8,10/05/2023,13:23:36.300,-0.875,-0.250,0.188,,,,,
1_S8,10/05/2023,13:23:36.400,-1.000,-0.313,-0.125,,,,,
1_S8,10/05/2023,13:23:36.500,-0.938,-0.375,-0.125,-63.0,88.5,807.0,,
1_S8,10/05/2023,13:23:36.600,-1.000,-0.188,-0.313,,,,,
1_S8,10/05/2023,13:23:36.700,-0.875,-0.125,-0.500,,,,,
1_S8,10/05/2023,13:23:36.800,-0.813,-0.125,-0.688,,,,,
1_S8,10/05/2023,13:23:36.900,-0.625,-0.063,-0.813,,,,,
1_S8,10/05/2023,13:23:37.000,-0.625,-0.125,-0.875,-363.0,66.0,972.0,,
1_S8,10/05/2023,13:23:37.100,-0.500,-0.125,-0.875,,,,,
1_S8,10/05/2023,13:23:37.200,-0.313,0.063,-0.875,,,,,
1_S8,10/05/2023,13:23:37.300,-0.250,-0.188,-0.875,,,,,
1_S8,10/05/2023,13:23:37.400,-0.188,-0.250,-0.875,,,,,
1_S8,10/05/2023,13:23:37.500,0.063,-0.375,-0.875,-544.5,90.0,987.0,,
1_S8,10/05/2023,13:23:37.600,0.125,-0.125,-0.938,,,,,
1_S8,10/05/2023,13:23:37.700,0.250,-0.375,-0.875,,,,,
1_S8,10/05/2023,13:23:37.800,0.313,-0.313,-0.813,,,,,
1_S8,10/05/2023,13:23:37.900,0.563,-0.250,-0.938,,,,,
1_S8,10/05/2023,13:23:38.000,0.500,-0.125,-0.750,-640.5,-10.5,888.0,,
1_S8,10/05/2023,13:23:38.100,0.563,-0.063,-0.813,,,,,
1_S8,10/05/2023,13:23:38.200,0.500,0.063,-0.813,,,,,
1_S8,10/05/2023,13:23:38.300,0.500,0.063,-0.875,,,,,
1_S8,10/05/2023,13:23:38.400,0.375,0.063,-0.875,,,,,
1_S8,10/05/2023,13:23:38.500,0.313,-0.125,-0.875,-397.5,7.5,972.0,,
1_S8,10/05/2023,13:23:38.600,0.250,-0.125,-0.938,,,,,
1_S8,10/05/2023,13:23:38.700,0.125,-0.250,-0.938,,,,,
1_S8,10/05/2023,13:23:38.800,-0.063,-0.375,-0.875,,,,,
1_S8,10/05/2023,13:23:38.900,-0.125,-0.500,-0.875,,,,,
1_S8,10/05/2023,13:23:39.000,-0.125,-0.625,-0.750,-180.0,213.0,912.0,28,
1_S8,10/05/2023,13:23:39.100,-0.256,-0.644,-0.675,,,,,
1_S8,10/05/2023,13:23:39.200,-0.325,-0.825,-0.538,,,,,
1_S8,10/05/2023,13:23:39.300,-0.413,-0.838,-0.419,,,,,
1_S8,10/05/2023,13:23:39.400,-0.550,-0.750,-0.325,,,,,
1_S8,10/05/2023,13:23:39.500,-0.656,-0.719,-0.250,-97.5,234.0,808.5,,
1_S8,10/05/2023,13:23:39.600,-0.688,-0.725,-0.363,,,,,
1_S8,10/05/2023,13:23:39.700,-0.688,-0.619,-0.306,,,,,
1_S8,10/05/2023,13:23:39.800,-0.688,-0.663,-0.200,,,,,
1_S8,10/05/2023,13:23:39.900,-0.750,-0.813,-0.125,,,,,
1_S8,10/05/2023,13:23:40.000,-0.688,-0.938,-0.313,-162.0,288.0,858.0,,
1_S8,10/05/2023,13:23:40.100,-0.563,-0.938,-0.313,,,,,
1_S8,10/05/2023,13:23:40.200,-0.188,-0.625,-0.313,,,,,
1_S8,10/05/2023,13:23:40.300,-0.063,-0.938,-0.438,,,,,
1_S8,10/05/2023,13:23:40.400,0.063,-0.875,-0.563,,,,,
1_S8,10/05/2023,13:23:40.500,0.188,-0.813,-0.500,-576.0,294.0,952.5,,
1_S8,10/05/2023,13:23:40.600,0.375,-0.688,-0.563,,,,,
1_S8,10/05/2023,13:23:40.700,0.500,-0.500,-0.750,,,,,
1_S8,10/05/2023,13:23:40.800,0.563,-0.313,-0.688,,,,,
1_S8,10/05/2023,13:23:40.900,0.625,-0.188,-0.688,,,,,
1_S8,10/05/2023,13:23:41.000,0.625,0.063,-0.813,-657.0,-19.5,897.0,,
1_S8,10/05/2023,13:23:41.100,0.625,0.250,-0.688,,,,,
1_S8,10/05/2023,13:23:41.200,0.500,0.563,-0.688,,,,,
1_S8,10/05/2023,13:23:41.300,0.438,0.750,-0.563,,,,,
1_S8,10/05/2023,13:23:41.400,0.375,0.875,-0.500,,,,,
1_S8,10/05/2023,13:23:41.500,0.125,1.000,-0.375,-357.0,-258.0,655.5,,
1_S8,10/05/2023,13:23:41.600,0.000,1.000,-0.375,,,,,
1_S8,10/05/2023,13:23:41.700,0.000,0.938,-0.563,,,,,
1_S8,10/05/2023,13:23:41.800,-0.125,0.625,-0.875,,,,,
1_S8,10/05/2023,13:23:41.900,-0.250,0.313,-0.875,,,,,
1_S8,10/05/2023,13:23:42.000,-0.438,-0.125,-0.938,-181.5,-51.0,871.5,,
1_S8,10/05/2023,13:23:42.100,-0.375,0.313,-1.000,,,,,
1_S8,10/05/2023,13:23:42.200,-0.438,-0.438,-0.500,,,,,
1_S8,10/05/2023,13:23:42.300,-0.438,-0.813,-0.438,,,,,
1_S8,10/05/2023,13:23:42.400,-0.438,-0.813,-0.188,,,,,
1_S8,10/05/2023,13:23:42.500,-0.563,-0.813,0.063,-156.0,342.0,850.5,,
1_S8,10/05/2023,13:23:42.600,-0.500,-0.813,0.188,,,,,
1_S8,10/05/2023,13:23:42.700,-0.625,-0.750,0.313,,,,,
1_S8,10/05/2023,13:23:42.800,-0.500,-0.875,0.313,,,,,
1_S8,10/05/2023,13:23:42.900,-0.375,-1.000,0.125,,,,,
1_S8,10/05/2023,13:23:43.000,-0.188,-0.938,0.125,-433.5,480.0,781.5,,
1_S8,10/05/2023,13:23:43.100,-0.063,-0.938,0.188,,,,,
1_S8,10/05/2023,13:23:43.200,0.000,-0.938,0.125,,,,,
1_S8,10/05/2023,13:23:43.300,0.063,-1.000,0.063,,,,,
1_S8,10/05/2023,13:23:43.400,0.063,-0.750,-0.250,,,,,
1_S8,10/05/2023,13:23:43.500,0.188,-0.938,-0.313,-637.5,372.0,849.0,,
1_S8,10/05/2023,13:23:43.600,0.375,-0.875,-0.375,,,,,
1_S8,10/05/2023,13:23:43.700,0.438,-0.438,-0.625,,,,,
1_S8,10/05/2023,13:23:43.800,0.125,-0.313,-1.000,,,,,
1_S8,10/05/2023,13:23:43.900,0.375,-0.125,-0.938,,,,,
1_S8,10/05/2023,13:23:44.000,0.438,-0.188,-0.813,-577.5,-121.5,855.0,28,
1_S8,10/05/2023,13:23:44.100,0.556,0.613,-0.750,,,,,
1_S8,10/05/2023,13:23:44.200,0.500,0.538,-0.700,,,,,
1_S8,10/05/2023,13:23:44.300,0.500,0.725,-0.481,,,,,
1_S8,10/05/2023,13:23:44.400,0.425,0.863,-0.363,,,,,
1_S8,10/05/2023,13:23:44.500,0.281,0.969,-0.156,-411.0,-286.5,592.5,,
1_S8,10/05/2023,13:23:44.600,0.175,1.038,0.013,,,,,
1_S8,10/05/2023,13:23:44.700,-0.050,1.063,0.063,,,,,
1_S8,10/05/2023,13:23:44.800,-0.025,1.013,0.063,,,,,
1_S8,10/05/2023,13:23:44.900,-0.125,1.063,-0.063,,,,,
1_S8,10/05/2023,13:23:45.000,-0.250,1.125,-0.125,-178.5,-210.0,462.0,,
1_S8,10/05/2023,13:23:45.100,-0.313,0.938,-0.125,,,,,
1_S8,10/05/2023,13:23:45.200,-0.500,0.938,-0.188,,,,,
1_S8,10/05/2023,13:23:45.300,-0.563,0.875,-0.375,,,,,
1_S8,10/05/2023,13:23:45.400,-0.500,0.813,-0.500,,,,,
1_S8,10/05/2023,13:23:45.500,-0.500,0.563,-0.750,-273.0,-262.5,570.0,,
1_S8,10/05/2023,13:23:45.600,-0.563,0.438,-0.813,,,,,
1_S8,10/05/2023,13:23:45.700,-0.563,0.188,-0.813,,,,,
1_S8,10/05/2023,13:23:45.800,-0.563,-0.125,-0.875,,,,,
1_S8,10/05/2023,13:23:45.900,-0.500,-0.438,-0.813,,,,,
1_S8,10/05/2023,13:23:46.000,-0.313,-0.625,-0.625,-250.5,112.5,963.0,,
1_S8,10/05/2023,13:23:46.100,-0.250,-0.813,-0.438,,,,,
1_S8,10/05/2023,13:23:46.200,-0.063,-0.938,-0.313,,,,,
1_S8,10/05/2023,13:23:46.300,0.125,-0.875,-0.313,,,,,
1_S8,10/05/2023,13:23:46.400,0.313,-0.875,-0.250,,,,,
1_S8,10/05/2023,13:23:46.500,0.500,-0.750,-0.313,-619.5,315.0,900.0,,
1_S8,10/05/2023,13:23:46.600,0.625,-0.563,-0.188,,,,,
1_S8,10/05/2023,13:23:46.700,0.813,-0.375,-0.250,,,,,
1_S8,10/05/2023,13:23:46.800,0.813,-0.125,-0.313,,,,,
1_S8,10/05/2023,13:23:46.900,0.875,-0.125,-0.438,,,,,
1_S8,10/05/2023,13:23:47.000,0.750,-0.125,-0.563,-642.0,81.0,940.5,,
1_S8,10/05/2023,13:23:47.100,0.750,-0.188,-0.500,,,,,
1_S8,10/05/2023,13:23:47.200,0.750,-0.313,-0.500,,,,,
1_S8,10/05/2023,13:23:47.300,0.750,-0.375,-0.438,,,,,
1_S8,10/05/2023,13:23:47.400,0.813,-0.563,-0.375,,,,,
1_S8,10/05/2023,13:23:47.500,0.688,-0.625,-0.188,-538.5,441.0,814.5,,
1_S8,10/05/2023,13:23:47.600,0.688,-0.625,-0.125,,,,,
1_S8,10/05/2023,13:23:47.700,0.563,-0.688,-0.125,,,,,
1_S8,10/05/2023,13:23:47.800,0.375,-0.813,-0.063,,,,,
1_S8,10/05/2023,13:23:47.900,0.375,-0.938,0.188,,,,,
1_S8,10/05/2023,13:23:48.000,0.188,-0.938,0.375,-321.0,517.5,568.5,,
1_S8,10/05/2023,13:23:48.100,0.125,-0.875,0.500,,,,,
1_S8,10/05/2023,13:23:48.200,0.063,-0.750,0.625,,,,,
1_S8,10/05/2023,13:23:48.300,-0.063,-0.688,0.688,,,,,
1_S8,10/05/2023,13:23:48.400,-0.125,-0.563,0.813,,,,,
1_S8,10/05/2023,13:23:48.500,-0.250,-0.563,0.750,-160.5,418.5,463.5,,
1_S8,10/05/2023,13:23:48.600,-0.313,-0.563,0.813,,,,,
1_S8,10/05/2023,13:23:48.700,-0.375,-0.500,0.750,,,,,
1_S8,10/05/2023,13:23:48.800,-0.438,-0.375,0.813,,,,,
1_S8,10/05/2023,13:23:48.900,-0.500,-0.313,0.813,,,,,
1_S8,10/05/2023,13:23:49.000,-0.563,-0.313,0.813,-108.0,381.0,477.0,28,
1_S8,10/05/2023,13:23:49.100,-0.625,-0.313,0.756,,,,,
1_S8,10/05/2023,13:23:49.200,-0.625,-0.313,0.800,,,,,
1_S8,10/05/2023,13:23:49.300,-0.625,-0.294,0.769,,,,,
1_S8,10/05/2023,13:23:49.400,-0.600,-0.300,0.788,,,,,
1_S8,10/05/2023,13:23:49.500,-0.500,-0.406,0.782,-246.0,453.0,466.5,,
1_S8,10/05/2023,13:23:49.600,-0.400,-0.363,0.850,,,,,
1_S8,10/05/2023,13:23:49.700,-0.331,-0.181,0.875,,,,,
1_S8,10/05/2023,13:23:49.800,-0.113,0.625,0.725,,,,,
1_S8,10/05/2023,13:23:49.900,-0.125,1.000,0.500,,,,,
1_S8,10/05/2023,13:23:50.000,-0.063,0.938,0.375,-486.0,-75.0,229.5,,
1_S8,10/05/2023,13:23:50.100,0.063,1.000,0.250,,,,,
1_S8,10/05/2023,13:23:50.200,0.188,0.938,0.188,,,,,
1_S8,10/05/2023,13:23:50.300,0.313,0.938,0.188,,,,,
1_S8,10/05/2023,13:23:50.400,0.438,0.938,0.188,,,,,
1_S8,10/05/2023,13:23:50.500,0.563,0.875,0.188,-693.0,-55.5,345.0,,
1_S8,10/05/2023,13:23:50.600,0.625,0.750,0.125,,,,,
1_S8,10/05/2023,13:23:50.700,0.813,0.625,0.125,,,,,
1_S8,10/05/2023,13:23:50.800,0.875,-0.125,0.625,,,,,
1_S8,10/05/2023,13:23:50.900,0.750,0.313,0.375,,,,,
1_S8,10/05/2023,13:23:51.000,0.875,0.438,0.250,-688.5,78.0,268.5,,
1_S8,10/05/2023,13:23:51.100,0.813,0.375,0.375,,,,,
1_S8,10/05/2023,13:23:51.200,0.813,0.500,0.375,,,,,
1_S8,10/05/2023,13:23:51.300,0.938,1.000,0.625,,,,,
1_S8,10/05/2023,13:23:51.400,0.625,0.813,0.250,,,,,
1_S8,10/05/2023,13:23:51.500,0.563,0.813,0.250,-531.0,-138.0,310.5,,
1_S8,10/05/2023,13:23:51.600,0.500,0.938,0.188,,,,,
1_S8,10/05/2023,13:23:51.700,0.500,0.938,0.063,,,,,
1_S8,10/05/2023,13:23:51.800,0.438,0.938,0.000,,,,,
1_S8,10/05/2023,13:23:51.900,0.250,0.875,-0.188,,,,,
1_S8,10/05/2023,13:23:52.000,0.188,1.000,-0.250,-364.5,-270.0,484.5,,
1_S8,10/05/2023,13:23:52.100,0.188,0.938,-0.375,,,,,
1_S8,10/05/2023,13:23:52.200,0.063,1.000,-0.563,,,,,
1_S8,10/05/2023,13:23:52.300,-0.125,0.813,-0.625,,,,,
1_S8,10/05/2023,13:23:52.400,-0.125,0.875,-0.813,,,,,
1_S8,10/05/2023,13:23:52.500,-0.250,0.625,-0.875,-213.0,-210.0,723.0,,
1_S8,10/05/2023,13:23:52.600,-0.125,0.625,-0.875,,,,,
1_S8,10/05/2023,13:23:52.700,-0.250,0.375,-0.938,,,,,
1_S8,10/05/2023,13:23:52.800,-0.313,0.313,-0.938,,,,,
1_S8,10/05/2023,13:23:52.900,-0.313,0.250,-0.938,,,,,
1_S8,10/05/2023,13:23:53.000,-0.438,0.250,-0.875,-231.0,-171.0,801.0,,
1_S8,10/05/2023,13:23:53.100,-0.500,0.250,-0.875,,,,,
1_S8,10/05/2023,13:23:53.200,-0.500,0.188,-0.875,,,,,
1_S8,10/05/2023,13:23:53.300,-0.500,0.063,-0.875,,,,,
1_S8,10/05/2023,13:23:53.400,-0.500,0.063,-0.938,,,,,
1_S8,10/05/2023,13:23:53.500,-0.500,-0.125,-1.000,-367.5,-43.5,937.5,,
1_S8,10/05/2023,13:23:53.600,-0.250,-0.188,-1.000,,,,,
1_S8,10/05/2023,13:23:53.700,-0.125,-0.313,-0.938,,,,,
1_S8,10/05/2023,13:23:53.800,-0.125,-0.250,-0.875,,,,,
1_S8,10/05/2023,13:23:53.900,0.000,-0.375,-0.875,,,,,
1_S8,10/05/2023,13:23:54.000,0.063,-0.375,-0.875,-624.0,112.5,939.0,28,
1_S8,10/05/2023,13:23:54.100,0.200,-0.506,-0.800,,,,,
1_S8,10/05/2023,13:23:54.200,0.325,-0.588,-0.663,,,,,
1_S8,10/05/2023,13:23:54.300,0.394,-0.688,-0.525,,,,,
1_S8,10/05/2023,13:23:54.400,0.463,-0.713,-0.438,,,,,
1_S8,10/05/2023,13:23:54.500,0.563,-0.750,-0.375,-751.5,213.0,832.5,,
1_S8,10/05/2023,13:23:54.600,0.625,-0.713,-0.313,,,,,
1_S8,10/05/2023,13:23:54.700,0.581,-0.644,-0.269,,,,,
1_S8,10/05/2023,13:23:54.800,0.613,-0.575,-0.200,,,,,
1_S8,10/05/2023,13:23:54.900,0.750,-0.563,-0.125,,,,,
1_S8,10/05/2023,13:23:55.000,0.688,-0.313,0.000,-795.0,163.5,774.0,,
1_S8,10/05/2023,13:23:55.100,0.813,-0.438,-0.125,,,,,
1_S8,10/05/2023,13:23:55.200,0.813,-0.438,-0.125,,,,,
1_S8,10/05/2023,13:23:55.300,1.000,-0.250,-0.063,,,,,
1_S8,10/05/2023,13:23:55.400,0.688,0.125,-1.000,,,,,
1_S8,10/05/2023,13:23:55.500,0.875,-0.250,-0.125,-712.5,169.5,862.5,,
1_S8,10/05/2023,13:23:55.600,0.750,-0.313,-0.313,,,,,
1_S8,10/05/2023,13:23:55.700,0.813,-0.438,-0.250,,,,,
1_S8,10/05/2023,13:23:55.800,0.750,-0.438,-0.125,,,,,
1_S8,10/05/2023,13:23:55.900,0.750,-0.563,-0.063,,,,,
1_S8,10/05/2023,13:23:56.000,0.750,-0.500,-0.063,-637.5,417.0,795.0,,
1_S8,10/05/2023,13:23:56.100,0.688,-0.563,0.063,,,,,
1_S8,10/05/2023,13:23:56.200,0.625,-0.625,0.125,,,,,
1_S8,10/05/2023,13:23:56.300,0.500,-0.688,0.250,,,,,
1_S8,10/05/2023,13:23:56.400,0.500,-0.750,0.250,,,,,
1_S8,10/05/2023,13:23:56.500,0.438,-0.813,0.313,-442.5,513.0,573.0,,
1_S8,10/05/2023,13:23:56.600,0.313,-0.750,0.438,,,,,
1_S8,10/05/2023,13:23:56.700,0.188,-0.750,0.563,,,,,
1_S8,10/05/2023,13:23:56.800,0.125,-0.813,0.625,,,,,
1_S8,10/05/2023,13:23:56.900,0.000,-0.688,0.688,,,,,
1_S8,10/05/2023,13:23:57.000,-0.188,-0.625,0.688,-214.5,432.0,462.0,,
1_S8,10/05/2023,13:23:57.100,-0.313,-0.625,0.750,,,,,
1_S8,10/05/2023,13:23:57.200,-0.438,-0.688,0.625,,,,,
1_S8,10/05/2023,13:23:57.300,-0.438,-0.750,0.563,,,,,
1_S8,10/05/2023,13:23:57.400,-0.500,-0.688,0.438,,,,,
1_S8,10/05/2023,13:23:57.500,-0.563,-0.688,0.375,-238.5,459.0,655.5,,
1_S8,10/05/2023,13:23:57.600,-0.563,-0.750,0.250,,,,,
1_S8,10/05/2023,13:23:57.700,-0.500,-0.813,0.313,,,,,
1_S8,10/05/2023,13:23:57.800,-0.375,-0.688,0.438,,,,,
1_S8,10/05/2023,13:23:57.900,-0.313,-0.813,0.563,,,,,
1_S8,10/05/2023,13:23:58.000,-0.188,-0.688,0.625,-459.0,519.0,555.0,,
1_S8,10/05/2023,13:23:58.100,-0.119,-0.600,0.819,,,,,
1_S8,10/05/2023,13:23:58.200,-0.063,-0.350,0.888,,,,,
1_S8,10/05/2023,13:23:58.300,-0.025,-0.194,0.957,,,,,
1_S8,10/05/2023,13:23:58.400,0.113,0.038,1.025,,,,,
1_S8,10/05/2023,13:23:58.500,0.250,0.250,0.969,-603.0,295.5,279.0,,
1_S8,10/05/2023,13:23:58.600,0.388,0.463,0.838,,,,,
1_S8,10/05/2023,13:23:58.700,0.481,0.563,0.681,,,,,
1_S8,10/05/2023,13:23:58.800,0.600,0.663,0.475,,,,,
1_S8,10/05/2023,13:23:58.900,0.625,0.813,0.375,,,,,
1_S8,10/05/2023,13:23:59.000,0.750,0.688,0.188,-745.5,54.0,337.5,28,
1_S8,10/05/2023,13:23:59.100,0.813,0.688,0.188,,,,,
1_S8,10/05/2023,13:23:59.200,0.750,0.500,0.188,,,,,
1_S8,10/05/2023,13:23:59.300,0.813,0.500,0.125,,,,,
1_S8,10/05/2023,13:23:59.400,0.875,0.438,0.250,,,,,
1_S8,10/05/2023,13:23:59.500,0.875,0.500,0.125,-718.5,18.0,309.0,,
1_S8,10/05/2023,13:23:59.600,0.813,0.563,0.063,,,,,
1_S8,10/05/2023,13:23:59.700,0.813,0.563,0.063,,,,,
1_S8,10/05/2023,13:23:59.800,0.750,0.750,-0.125,,,,,
1_S8,10/05/2023,13:23:59.900,0.625,0.875,-0.125,,,,,
1_S8,10/05/2023,13:24:00.000,0.500,0.938,-0.250,-579.0,-225.0,426.0,,
1_S8,10/05/2023,13:24:00.100,0.375,0.813,-0.313,,,,,
1_S8,10/05/2023,13:24:00.200,0.375,0.875,-0.438,,,,,
1_S8,10/05/2023,13:24:00.300,0.125,0.813,-0.563,,,,,
1_S8,10/05/2023,13:24:00.400,0.250,0.813,-0.625,,,,,
1_S8,10/05/2023,13:24:00.500,0.188,0.938,-0.750,-381.0,-235.5,690.0,,
1_S8,10/05/2023,13:24:00.600,0.000,0.688,-0.875,,,,,
1_S8,10/05/2023,13:24:00.700,-0.063,0.625,-0.813,,,,,
1_S8,10/05/2023,13:24:00.800,-0.125,0.375,-0.938,,,,,
1_S8,10/05/2023,13:24:00.900,-0.313,0.313,-1.000,,,,,
1_S8,10/05/2023,13:24:01.000,-0.500,0.250,-0.875,-217.5,-178.5,799.5,,
1_S8,10/05/2023,13:24:01.100,-0.625,0.250,-0.875,,,,,
1_S8,10/05/2023,13:24:01.200,-0.875,0.250,-0.563,,,,,
1_S8,10/05/2023,13:24:01.300,-0.938,0.313,-0.250,,,,,
1_S8,10/05/2023,13:24:01.400,-1.000,0.375,0.000,,,,,
1_S8,10/05/2023,13:24:01.500,-0.938,0.438,0.125,-166.5,-190.5,495.0,,
1_S8,10/05/2023,13:24:01.600,-0.938,0.438,0.375,,,,,
1_S8,10/05/2023,13:24:01.700,-0.813,0.375,0.500,,,,,
1_S8,10/05/2023,13:24:01.800,-0.813,0.375,0.563,,,,,
1_S8,10/05/2023,13:24:01.900,-0.688,0.375,0.625,,,,,
1_S8,10/05/2023,13:24:02.000,-0.625,0.438,0.875,-325.5,-175.5,333.0,,
1_S8,10/05/2023,13:24:02.100,-0.438,0.375,0.875,,,,,
1_S8,10/05/2023,13:24:02.200,-0.375,0.375,0.875,,,,,
1_S8,10/05/2023,13:24:02.300,-0.188,0.500,0.938,,,,,
1_S8,10/05/2023,13:24:02.400,-0.125,0.500,1.000,,,,,
1_S8,10/05/2023,13:24:02.500,0.000,0.438,0.875,-445.5,-207.0,357.0,,
1_S8,10/05/2023,13:24:02.600,-0.063,0.438,0.813,,,,,
1_S8,10/05/2023,13:24:02.700,-0.250,0.250,0.938,,,,,
1_S8,10/05/2023,13:24:02.800,-0.250,0.375,0.938,,,,,
1_S8,10/05/2023,13:24:02.900,-0.250,0.438,0.938,,,,,
1_S8,10/05/2023,13:24:03.000,-0.063,0.125,1.063,-333.0,-139.5,316.5,,
1_S8,10/05/2023,13:24:03.100,-0.269,0.244,1.132,,,,,
1_S8,10/05/2023,13:24:03.200,-0.438,0.163,1.163,,,,,
1_S8,10/05/2023,13:24:03.300,-0.288,0.025,1.119,,,,,
1_S8,10/05/2023,13:24:03.400,0.038,-0.013,1.150,,,,,
1_S8,10/05/2023,13:24:03.500,0.000,0.063,1.000,-325.5,-111.0,247.5,,
1_S8,10/05/2023,13:24:03.600,0.000,0.063,1.000,,,,,
1_S8,10/05/2023,13:24:03.700,0.000,0.063,1.000,,,,,
1_S8,10/05/2023,13:24:03.800,0.000,0.063,1.000,,,,,
1_S8,10/05/2023,13:24:03.900,-0.063,0.063,1.000,,,,,
1_S8,10/05/2023,13:24:04.000,0.000,0.063,1.000,-310.5,-78.0,250.5,28,
1_S8,10/05/2023,13:24:04.100,0.000,0.063,1.000,,,,,
1_S8,10/05/2023,13:24:04.200,0.000,0.063,1.000,,,,,
1_S8,10/05/2023,13:24:04.300,0.000,0.063,1.000,,,,,
1_S8,10/05/2023,13:24:04.400,0.000,0.063,1.000,,,,,
1_S8,10/05/2023,13:24:04.500,0.000,0.063,1.063,387.0,-8413.5,10627.5,,
1_S8,10/05/2023,13:24:04.600,0.000,0.063,1.063,,,,,
1_S8,10/05/2023,13:24:04.700,0.000,0.063,1.063,,,,,
1_S8,10/05/2023,13:24:04.800,0.000,0.063,1.063,,,,,
1_S8,10/05/2023,13:24:04.900,0.000,0.063,1.000,,,,,
1_S8,10/05/2023,13:24:05.000,-0.063,0.063,1.000,2068.5,85.5,-9750.0,,
1_S8,10/05/2023,13:24:05.100,0.000,0.063,1.000,,,,,
1_S8,10/05/2023,13:24:05.200,-0.063,0.063,1.063,,,,,
1_S8,10/05/2023,13:24:05.300,0.000,0.063,1.063,,,,,
1_S8,10/05/2023,13:24:05.400,0.000,0.063,0.938,,,,,
1_S8,10/05/2023,13:24:05.500,0.000,0.063,1.000,2362.5,270.0,-9757.5,,
1_S8,10/05/2023,13:24:05.600,0.000,0.063,1.000,,,,,
1_S8,10/05/2023,13:24:05.700,0.000,0.063,1.000,,,,,
1_S8,10/05/2023,13:24:05.800,0.000,0.063,1.000,,,,,
1_S8,10/05/2023,13:24:05.900,0.000,0.063,1.063,,,,,
1_S8,10/05/2023,13:24:06.000,0.000,0.063,1.063,2520.0,534.0,-9682.5,,
1_S8,10/05/2023,13:24:06.100,0.000,0.063,1.000,,,,,
1_S8,10/05/2023,13:24:06.200,0.000,0.063,1.000,,,,,
1_S8,10/05/2023,13:24:06.300,0.000,0.063,1.000,,,,,
1_S8,10/05/2023,13:24:06.400,0.000,0.063,1.000,,,,,
1_S8,10/05/2023,13:24:06.500,0.000,0.063,1.000,-480.0,48.0,624.0,,
1_S8,10/05/2023,13:24:06.600,0.000,0.125,1.000,,,,,
1_S8,10/05/2023,13:24:06.700,0.000,0.063,1.000,,,,,
1_S8,10/05/2023,13:24:06.800,0.000,0.063,1.000,,,,,
1_S8,10/05/2023,13:24:06.900,0.063,0.063,1.063,,,,,
1_S8,10/05/2023,13:24:07.000,0.000,0.063,1.063,-450.0,55.5,550.5,,
1_S8,10/05/2023,13:24:07.100,0.000,0.063,1.000,,,,,
1_S8,10/05/2023,13:24:07.200,0.000,0.063,1.000,,,,,
1_S8,10/05/2023,13:24:07.300,0.000,0.125,1.000,,,,,
1_S8,10/05/2023,13:24:07.400,0.000,0.063,1.063,,,,,
1_S8,10/05/2023,13:24:07.500,0.000,0.063,1.000,-445.5,49.5,553.5,,
1_S8,10/05/2023,13:24:07.600,0.000,0.063,1.000,,,,,
1_S8,10/05/2023,13:24:07.700,0.000,0.063,1.063,,,,,
1_S8,10/05/2023,13:24:07.800,0.000,0.063,1.000,,,,,
1_S8,10/05/2023,13:24:07.900,0.000,0.063,1.063,,,,,
1_S8,10/05/2023,13:24:07.000,0.000,0.000,0.000,,,,28,Power off command received.
