TagID,Date,Time,accX,accY,accZ,magX,magY,magZ,Temp. (?C),Metadata
1_S7,10/05/2023,13:13:53.000,0.813,-0.188,0.125,789.0,712.5,-1144.5,24,
1_S7,10/05/2023,13:13:53.100,0.875,-0.125,-0.375,,,,,
1_S7,10/05/2023,13:13:53.200,0.813,-0.188,-0.500,,,,,
1_S7,10/05/2023,13:13:53.300,0.750,-0.250,-0.563,,,,,
1_S7,10/05/2023,13:13:53.400,0.688,-0.250,-0.500,,,,,
1_S7,10/05/2023,13:13:53.500,0.688,-0.188,-0.563,793.5,756.0,-934.5,,
1_S7,10/05/2023,13:13:53.600,0.625,-0.250,-0.688,,,,,
1_S7,10/05/2023,13:13:53.700,0.500,-0.250,-0.813,,,,,
1_S7,10/05/2023,13:13:53.800,0.313,-0.313,-0.875,,,,,
1_S7,10/05/2023,13:13:53.900,0.125,-0.313,-0.875,,,,,
1_S7,10/05/2023,13:13:54.000,0.063,-0.313,-1.000,1723.5,1030.5,-1429.5,,
1_S7,10/05/2023,13:13:54.100,0.000,-0.250,-1.000,,,,,
1_S7,10/05/2023,13:13:54.200,-0.063,-0.188,-0.938,,,,,
1_S7,10/05/2023,13:13:54.300,-0.250,-0.188,-1.000,,,,,
1_S7,10/05/2023,13:13:54.400,-0.313,-0.188,-0.938,,,,,
1_S7,10/05/2023,13:13:54.500,-0.313,-0.188,-0.938,1111.5,931.5,-1611.0,,
1_S7,10/05/2023,13:13:54.600,-0.438,-0.188,-0.875,,,,,
1_S7,10/05/2023,13:13:54.700,-0.563,-0.188,-0.813,,,,,
1_S7,10/05/2023,13:13:54.800,-0.688,-0.188,-0.875,,,,,
1_S7,10/05/2023,13:13:54.900,-0.688,-0.188,-0.813,,,,,
1_S7,10/05/2023,13:13:55.000,-0.750,-0.250,-0.625,517.5,879.0,-2418.0,,
1_S7,10/05/2023,13:13:55.100,-0.813,-0.125,-0.625,,,,,
1_S7,10/05/2023,13:13:55.200,-0.813,-0.125,-0.625,,,,,
1_S7,10/05/2023,13:13:55.300,-0.813,-0.188,-0.438,,,,,
1_S7,10/05/2023,13:13:55.400,-1.000,0.000,-0.438,,,,,
1_S7,10/05/2023,13:13:55.500,-1.000,0.000,-0.250,232.5,804.0,-3414.0,,
1_S7,10/05/2023,13:13:55.600,-1.063,0.125,-0.125,,,,,
1_S7,10/05/2023,13:13:55.700,-1.000,0.250,0.000,,,,,
1_S7,10/05/2023,13:13:55.800,-1.000,0.125,0.063,,,,,
1_S7,10/05/2023,13:13:55.900,-1.000,0.063,0.188,,,,,
1_S7,10/05/2023,13:13:56.000,-1.000,-0.063,0.250,-1530.0,235.5,-2712.0,,
1_S7,10/05/2023,13:13:56.100,-0.938,0.063,0.313,,,,,
1_S7,10/05/2023,13:13:56.200,-0.875,0.000,0.563,,,,,
1_S7,10/05/2023,13:13:56.300,-0.688,0.000,0.750,,,,,
1_S7,10/05/2023,13:13:56.400,-0.750,-0.063,0.813,,,,,
1_S7,10/05/2023,13:13:56.500,-0.750,-0.188,0.750,-1572.0,291.0,-2859.0,,
1_S7,10/05/2023,13:13:56.600,-0.625,-0.063,0.813,,,,,
1_S7,10/05/2023,13:13:56.700,-0.563,0.063,0.813,,,,,
1_S7,10/05/2023,13:13:56.800,-0.438,0.188,0.875,,,,,
1_S7,10/05/2023,13:13:56.900,-0.438,0.438,0.813,,,,,
1_S7,10/05/2023,13:13:57.000,-0.438,0.625,0.813,-1420.5,214.5,-2707.5,,
1_S7,10/05/2023,13:13:57.100,-0.419,0.631,0.750,,,,,
1_S7,10/05/2023,13:13:57.200,-0.238,0.675,0.788,,,,,
1_S7,10/05/2023,13:13:57.300,-0.169,0.588,0.919,,,,,
1_S7,10/05/2023,13:13:57.400,-0.075,0.500,0.900,,,,,
1_S7,10/05/2023,13:13:57.500,0.031,0.469,0.907,-159.0,547.5,-2794.5,,
1_S7,10/05/2023,13:13:57.600,0.213,0.363,0.950,,,,,
1_S7,10/05/2023,13:13:57.700,0.181,0.444,0.913,,,,,
1_S7,10/05/2023,13:13:57.800,0.175,0.450,0.875,,,,,
1_S7,10/05/2023,13:13:57.900,0.313,0.500,0.813,,,,,
1_S7,10/05/2023,13:13:58.000,0.438,0.375,0.875,-138.0,550.5,-2787.0,24,
1_S7,10/05/2023,13:13:58.100,0.500,0.375,0.750,,,,,
1_S7,10/05/2023,13:13:58.200,0.438,0.313,0.813,,,,,
1_S7,10/05/2023,13:13:58.300,0.500,0.438,0.750,,,,,
1_S7,10/05/2023,13:13:58.400,0.625,0.375,0.688,,,,,
1_S7,10/05/2023,13:13:58.500,0.625,0.375,0.688,-253.5,589.5,-2758.5,,
1_S7,10/05/2023,13:13:58.600,0.625,0.313,0.563,,,,,
1_S7,10/05/2023,13:13:58.700,0.688,0.313,0.563,,,,,
1_S7,10/05/2023,13:13:58.800,0.750,0.313,0.500,,,,,
1_S7,10/05/2023,13:13:58.900,0.750,0.375,0.375,,,,,
1_S7,10/05/2023,13:13:59.000,0.750,0.375,0.313,-534.0,694.5,-2700.0,,
1_S7,10/05/2023,13:13:59.100,0.750,0.313,0.188,,,,,
1_S7,10/05/2023,13:13:59.200,0.875,0.438,0.125,,,,,
1_S7,10/05/2023,13:13:59.300,0.875,0.375,0.125,,,,,
1_S7,10/05/2023,13:13:59.400,0.875,0.313,0.125,,,,,
1_S7,10/05/2023,13:13:59.500,0.938,0.375,0.063,-537.0,709.5,-2568.0,,
1_S7,10/05/2023,13:13:59.600,0.938,0.438,0.000,,,,,
1_S7,10/05/2023,13:13:59.700,0.875,0.438,0.063,,,,,
1_S7,10/05/2023,13:13:59.800,0.875,0.375,-0.125,,,,,
1_S7,10/05/2023,13:13:59.900,0.938,0.375,-0.125,,,,,
1_S7,10/05/2023,13:14:00.000,0.875,1.063,0.000,-657.0,673.5,-2521.5,,
1_S7,10/05/2023,13:14:00.100,0.813,0.375,-0.188,,,,,
1_S7,10/05/2023,13:14:00.200,0.813,0.438,-0.375,,,,,
1_S7,10/05/2023,13:14:00.300,0.750,0.438,-0.438,,,,,
1_S7,10/05/2023,13:14:00.400,0.563,0.500,-0.438,,,,,
1_S7,10/05/2023,13:14:00.500,0.625,0.563,-0.625,-1023.0,748.5,-2211.0,,
1_S7,10/05/2023,13:14:00.600,0.375,0.500,-0.813,,,,,
1_S7,10/05/2023,13:14:00.700,0.313,0.563,-0.813,,,,,
1_S7,10/05/2023,13:14:00.800,0.375,0.500,-0.875,,,,,
1_S7,10/05/2023,13:14:00.900,0.250,0.563,-0.813,,,,,
1_S7,10/05/2023,13:14:01.000,0.063,0.563,-0.875,-801.0,750.0,-2209.5,,
1_S7,10/05/2023,13:14:01.100,0.063,0.750,-0.875,,,,,
1_S7,10/05/2023,13:14:01.200,0.000,0.563,-0.875,,,,,
1_S7,10/05/2023,13:14:01.300,-0.125,0.625,-0.875,,,,,
1_S7,10/05/2023,13:14:01.400,-0.250,0.500,-0.875,,,,,
1_S7,10/05/2023,13:14:01.500,-0.188,0.500,-0.875,-726.0,774.0,-2233.5,,
1_S7,10/05/2023,13:14:01.600,-0.250,0.625,-0.875,,,,,
1_S7,10/05/2023,13:14:01.700,-0.375,0.625,-0.750,,,,,
1_S7,10/05/2023,13:14:01.800,-0.438,0.688,-0.750,,,,,
1_S7,10/05/2023,13:14:01.900,-0.500,0.688,-0.688,,,,,
1_S7,10/05/2023,13:14:02.000,-0.500,0.688,-0.688,-736.5,741.0,-2364.0,,
1_S7,10/05/2023,13:14:02.100,-0.569,0.550,-0.638,,,,,
1_S7,10/05/2023,13:14:02.200,-0.613,0.500,-0.700,,,,,
1_S7,10/05/2023,13:14:02.300,-0.581,0.750,-0.481,,,,,
1_S7,10/05/2023,13:14:02.400,-0.600,0.725,-0.413,,,,,
1_S7,10/05/2023,13:14:02.500,-0.656,0.688,-0.406,460.5,430.5,-2356.5,,
1_S7,10/05/2023,13:14:02.600,-0.750,0.725,-0.400,,,,,
1_S7,10/05/2023,13:14:02.700,-0.750,0.838,-0.244,,,,,
1_S7,10/05/2023,13:14:02.800,-0.750,0.875,-0.188,,,,,
1_S7,10/05/2023,13:14:02.900,-0.688,0.875,-0.250,,,,,
1_S7,10/05/2023,13:14:03.000,-0.625,0.813,-0.125,567.0,364.5,-1957.5,24,
1_S7,10/05/2023,13:14:03.100,-0.688,0.813,-0.188,,,,,
1_S7,10/05/2023,13:14:03.200,-0.625,0.750,0.000,,,,,
1_S7,10/05/2023,13:14:03.300,-0.625,0.875,0.063,,,,,
1_S7,10/05/2023,13:14:03.400,-0.625,0.938,0.063,,,,,
1_S7,10/05/2023,13:14:03.500,-0.563,0.938,0.125,520.5,231.0,-1597.5,,
1_S7,10/05/2023,13:14:03.600,-0.563,0.875,0.188,,,,,
1_S7,10/05/2023,13:14:03.700,-0.563,0.875,0.313,,,,,
1_S7,10/05/2023,13:14:03.800,-0.563,0.938,0.375,,,,,
1_S7,10/05/2023,13:14:03.900,-0.563,0.875,0.375,,,,,
1_S7,10/05/2023,13:14:04.000,-0.375,0.813,0.563,510.0,274.5,-1695.0,,
1_S7,10/05/2023,13:14:04.100,-0.125,0.813,0.688,,,,,
1_S7,10/05/2023,13:14:04.200,-0.125,0.813,0.688,,,,,
1_S7,10/05/2023,13:14:04.300,0.000,0.813,0.688,,,,,
1_S7,10/05/2023,13:14:04.400,0.063,0.813,0.750,,,,,
1_S7,10/05/2023,13:14:04.500,0.188,0.750,0.750,255.0,250.5,-1521.0,,
1_S7,10/05/2023,13:14:04.600,0.250,0.688,0.688,,,,,
1_S7,10/05/2023,13:14:04.700,0.313,0.688,0.688,,,,,
1_S7,10/05/2023,13:14:04.800,0.313,0.688,0.688,,,,,
1_S7,10/05/2023,13:14:04.900,0.375,0.625,0.750,,,,,
1_S7,10/05/2023,13:14:05.000,0.438,0.500,0.750,165.0,261.0,-1183.5,,
1_S7,10/05/2023,13:14:05.100,0.500,0.500,0.750,,,,,
1_S7,10/05/2023,13:14:05.200,0.500,0.375,0.750,,,,,
1_S7,10/05/2023,13:14:05.300,0.625,0.438,0.625,,,,,
1_S7,10/05/2023,13:14:05.400,0.625,0.500,0.563,,,,,
1_S7,10/05/2023,13:14:05.500,0.625,0.625,0.375,232.5,304.5,-972.0,,
1_S7,10/05/2023,13:14:05.600,0.625,0.688,0.313,,,,,
1_S7,10/05/2023,13:14:05.700,0.688,0.813,0.188,,,,,
1_S7,10/05/2023,13:14:05.800,0.625,0.750,0.125,,,,,
1_S7,10/05/2023,13:14:05.900,0.563,0.875,0.063,,,,,
1_S7,10/05/2023,13:14:06.000,0.438,1.063,-0.125,577.5,414.0,-1240.5,,
1_S7,10/05/2023,13:14:06.100,0.438,0.938,0.000,,,,,
1_S7,10/05/2023,13:14:06.200,0.500,0.938,-0.188,,,,,
1_S7,10/05/2023,13:14:06.300,0.438,0.938,-0.313,,,,,
1_S7,10/05/2023,13:14:06.400,0.438,0.938,-0.375,,,,,
1_S7,10/05/2023,13:14:06.500,0.250,0.875,-0.375,738.0,490.5,-1321.5,,
1_S7,10/05/2023,13:14:06.600,0.125,0.938,-0.500,,,,,
1_S7,10/05/2023,13:14:06.700,0.063,0.938,-0.500,,,,,
1_S7,10/05/2023,13:14:06.800,0.000,0.938,-0.438,,,,,
1_S7,10/05/2023,13:14:06.900,-0.063,0.938,-0.500,,,,,
1_S7,10/05/2023,13:14:07.000,-0.063,0.938,-0.438,765.0,465.0,-1447.5,,
1_S7,10/05/2023,13:14:07.100,-0.125,0.875,-0.569,,,,,
1_S7,10/05/2023,13:14:07.200,-0.138,0.863,-0.625,,,,,
1_S7,10/05/2023,13:14:07.300,-0.225,0.794,-0.644,,,,,
1_S7,10/05/2023,13:14:07.400,-0.313,0.725,-0.688,,,,,
1_S7,10/05/2023,13:14:07.500,-0.344,0.719,-0.656,1059.0,634.5,-1338.0,,
1_S7,10/05/2023,13:14:07.600,-0.488,0.750,-0.550,,,,,
1_S7,10/05/2023,13:14:07.700,-0.563,0.838,-0.325,,,,,
1_S7,10/05/2023,13:14:07.800,-0.613,0.825,-0.250,,,,,
1_S7,10/05/2023,13:14:07.900,-0.625,0.875,-0.250,,,,,
1_S7,10/05/2023,13:14:08.000,-0.750,0.750,-0.188,1002.0,607.5,-1749.0,24,
1_S7,10/05/2023,13:14:08.100,-0.813,0.625,-0.125,,,,,
1_S7,10/05/2023,13:14:08.200,-0.813,0.625,-0.125,,,,,
1_S7,10/05/2023,13:14:08.300,-0.813,0.625,0.125,,,,,
1_S7,10/05/2023,13:14:08.400,-0.875,0.625,0.188,,,,,
1_S7,10/05/2023,13:14:08.500,-0.813,0.563,0.250,1086.0,685.5,-1767.0,,
1_S7,10/05/2023,13:14:08.600,-1.000,0.500,0.313,,,,,
1_S7,10/05/2023,13:14:08.700,-0.938,0.438,0.125,,,,,
1_S7,10/05/2023,13:14:08.800,-0.938,0.250,0.500,,,,,
1_S7,10/05/2023,13:14:08.900,-0.813,0.313,0.625,,,,,
1_S7,10/05/2023,13:14:09.000,-0.625,0.250,0.813,1077.0,856.5,-2043.0,,
1_S7,10/05/2023,13:14:09.100,-0.625,0.250,0.813,,,,,
1_S7,10/05/2023,13:14:09.200,-0.625,0.250,0.875,,,,,
1_S7,10/05/2023,13:14:09.300,-0.313,0.063,0.938,,,,,
1_S7,10/05/2023,13:14:09.400,-0.250,0.188,0.938,,,,,
1_S7,10/05/2023,13:14:09.500,-0.188,0.250,1.000,825.0,909.0,-2056.5,,
1_S7,10/05/2023,13:14:09.600,-0.063,0.375,0.938,,,,,
1_S7,10/05/2023,13:14:09.700,0.000,0.313,0.938,,,,,
1_S7,10/05/2023,13:14:09.800,0.000,0.375,0.938,,,,,
1_S7,10/05/2023,13:14:09.900,0.188,0.375,0.938,,,,,
1_S7,10/05/2023,13:14:10.000,0.375,0.375,0.938,663.0,709.5,-1744.5,,
1_S7,10/05/2023,13:14:10.100,0.375,0.438,0.875,,,,,
1_S7,10/05/2023,13:14:10.200,0.500,0.438,0.875,,,,,
1_S7,10/05/2023,13:14:10.300,0.563,0.313,0.750,,,,,
1_S7,10/05/2023,13:14:10.400,0.625,0.250,0.750,,,,,
1_S7,10/05/2023,13:14:10.500,0.688,0.125,0.625,498.0,832.5,-846.0,,
1_S7,10/05/2023,13:14:10.600,0.750,0.063,0.625,,,,,
1_S7,10/05/2023,13:14:10.700,0.750,0.063,0.625,,,,,
1_S7,10/05/2023,13:14:10.800,0.750,-0.063,0.688,,,,,
1_S7,10/05/2023,13:14:10.900,0.688,-0.125,0.750,,,,,
1_S7,10/05/2023,13:14:11.000,0.688,-0.125,0.688,433.5,816.0,-717.0,,
1_S7,10/05/2023,13:14:11.100,0.619,-0.313,0.744,,,,,
1_S7,10/05/2023,13:14:11.200,0.550,-0.338,0.675,,,,,
1_S7,10/05/2023,13:14:11.300,0.500,-0.494,0.625,,,,,
1_S7,10/05/2023,13:14:11.400,0.500,-0.625,0.575,,,,,
1_S7,10/05/2023,13:14:11.500,0.469,-0.656,0.469,7446.0,-2685.0,5157.0,,
1_S7,10/05/2023,13:14:11.600,0.475,-0.725,0.513,,,,,
1_S7,10/05/2023,13:14:11.700,0.544,-0.882,0.256,,,,,
1_S7,10/05/2023,13:14:11.800,0.413,-0.838,0.075,,,,,
1_S7,10/05/2023,13:14:11.900,0.438,-0.813,0.000,,,,,
1_S7,10/05/2023,13:14:12.000,0.563,-0.750,-0.188,10261.5,-5820.0,8779.5,,
1_S7,10/05/2023,13:14:12.100,0.563,-0.750,-0.250,,,,,
1_S7,10/05/2023,13:14:12.200,0.625,-0.500,-0.250,,,,,
1_S7,10/05/2023,13:14:12.300,0.625,-0.625,-0.375,,,,,
1_S7,10/05/2023,13:14:12.400,0.625,-0.500,-0.500,,,,,
1_S7,10/05/2023,13:14:12.500,0.625,-0.500,-0.500,-4056.0,14121.0,13414.5,,
1_S7,10/05/2023,13:14:12.600,0.813,-0.375,-0.625,,,,,
1_S7,10/05/2023,13:14:12.700,0.750,-0.250,-0.688,,,,,
1_S7,10/05/2023,13:14:12.800,0.563,-0.188,-0.625,,,,,
1_S7,10/05/2023,13:14:12.900,0.688,-0.188,-0.688,,,,,
1_S7,10/05/2023,13:14:13.000,0.563,-0.125,-0.688,3940.5,1219.5,385.5,24,
1_S7,10/05/2023,13:14:13.100,0.563,0.063,-0.813,,,,,
1_S7,10/05/2023,13:14:13.200,0.438,0.063,-0.813,,,,,
1_S7,10/05/2023,13:14:13.300,0.250,0.250,-0.875,,,,,
1_S7,10/05/2023,13:14:13.400,0.188,0.313,-0.938,,,,,
1_S7,10/05/2023,13:14:13.500,0.188,0.500,-0.938,1272.0,960.0,-1176.0,,
1_S7,10/05/2023,13:14:13.600,0.188,0.625,-0.813,,,,,
1_S7,10/05/2023,13:14:13.700,0.125,0.750,-0.688,,,,,
1_S7,10/05/2023,13:14:13.800,0.125,0.938,-0.625,,,,,
1_S7,10/05/2023,13:14:13.900,0.125,0.938,-0.125,,,,,
1_S7,10/05/2023,13:14:14.000,0.188,1.000,0.000,325.5,478.5,-1416.0,,
1_S7,10/05/2023,13:14:14.100,0.125,1.063,0.063,,,,,
1_S7,10/05/2023,13:14:14.200,0.250,0.938,0.250,,,,,
1_S7,10/05/2023,13:14:14.300,0.188,0.813,0.563,,,,,
1_S7,10/05/2023,13:14:14.400,0.250,0.625,0.750,,,,,
1_S7,10/05/2023,13:14:14.500,0.250,0.563,0.688,256.5,687.0,-1546.5,,
1_S7,10/05/2023,13:14:14.600,0.438,0.375,0.875,,,,,
1_S7,10/05/2023,13:14:14.700,0.438,0.438,0.813,,,,,
1_S7,10/05/2023,13:14:14.800,0.438,0.375,0.688,,,,,
1_S7,10/05/2023,13:14:14.900,0.375,0.063,1.125,,,,,
1_S7,10/05/2023,13:14:15.000,0.438,-0.125,1.000,289.5,790.5,-1101.0,,
1_S7,10/05/2023,13:14:15.100,0.500,-0.125,0.813,,,,,
1_S7,10/05/2023,13:14:15.200,0.375,-0.188,0.875,,,,,
1_S7,10/05/2023,13:14:15.300,0.438,-0.313,0.813,,,,,
1_S7,10/05/2023,13:14:15.400,0.313,-0.375,0.813,,,,,
1_S7,10/05/2023,13:14:15.500,0.375,-0.375,0.750,891.0,969.0,-348.0,,
1_S7,10/05/2023,13:14:15.600,0.438,-0.563,0.563,,,,,
1_S7,10/05/2023,13:14:15.700,0.500,-0.563,0.500,,,,,
1_S7,10/05/2023,13:14:15.800,0.625,-0.688,0.313,,,,,
1_S7,10/05/2023,13:14:15.900,0.625,-1.000,0.125,,,,,
1_S7,10/05/2023,13:14:16.000,0.563,-0.688,0.375,-13791.0,11949.0,6220.5,,
1_S7,10/05/2023,13:14:16.100,0.625,-0.688,0.175,,,,,
1_S7,10/05/2023,13:14:16.200,0.613,-0.688,0.050,,,,,
1_S7,10/05/2023,13:14:16.300,0.563,-0.631,-0.113,,,,,
1_S7,10/05/2023,13:14:16.400,0.538,-0.575,-0.325,,,,,
1_S7,10/05/2023,13:14:16.500,0.531,-0.688,-0.281,21235.5,17988.0,-1336.5,,
1_S7,10/05/2023,13:14:16.600,0.563,-0.688,-0.388,,,,,
1_S7,10/05/2023,13:14:16.700,0.519,-0.644,-0.481,,,,,
1_S7,10/05/2023,13:14:16.800,0.350,-0.675,-0.600,,,,,
1_S7,10/05/2023,13:14:16.900,0.250,-0.625,-0.688,,,,,
1_S7,10/05/2023,13:14:17.000,0.125,-0.625,-0.750,15477.0,6414.0,-625.5,,
1_S7,10/05/2023,13:14:17.100,-0.125,-0.563,-0.813,,,,,
1_S7,10/05/2023,13:14:17.200,-0.188,-0.563,-0.875,,,,,
1_S7,10/05/2023,13:14:17.300,-0.250,-0.500,-0.750,,,,,
1_S7,10/05/2023,13:14:17.400,-0.313,-0.375,-0.875,,,,,
1_S7,10/05/2023,13:14:17.500,-0.063,-0.250,-0.938,3876.0,2484.0,-2871.0,,
1_S7,10/05/2023,13:14:17.600,-0.063,-0.125,-1.063,,,,,
1_S7,10/05/2023,13:14:17.700,-0.125,-0.063,-0.938,,,,,
1_S7,10/05/2023,13:14:17.800,-0.250,-0.063,-0.938,,,,,
1_S7,10/05/2023,13:14:17.900,-0.313,0.125,-0.938,,,,,
1_S7,10/05/2023,13:14:18.000,-0.500,0.188,-0.938,1396.5,1093.5,-1888.5,24,
1_S7,10/05/2023,13:14:18.100,-0.688,0.250,-0.813,,,,,
1_S7,10/05/2023,13:14:18.200,-0.813,0.250,-0.563,,,,,
1_S7,10/05/2023,13:14:18.300,-0.875,0.188,-0.500,,,,,
1_S7,10/05/2023,13:14:18.400,-1.000,0.125,-0.313,,,,,
1_S7,10/05/2023,13:14:18.500,-1.000,0.188,-0.188,1143.0,921.0,-2191.5,,
1_S7,10/05/2023,13:14:18.600,-1.000,0.125,-0.125,,,,,
1_S7,10/05/2023,13:14:18.700,-1.000,0.125,0.000,,,,,
1_S7,10/05/2023,13:14:18.800,-1.000,0.125,0.313,,,,,
1_S7,10/05/2023,13:14:18.900,-0.875,0.188,0.438,,,,,
1_S7,10/05/2023,13:14:19.000,-0.938,0.188,0.500,1086.0,856.5,-2665.5,,
1_S7,10/05/2023,13:14:19.100,-0.813,0.125,0.563,,,,,
1_S7,10/05/2023,13:14:19.200,-0.938,0.188,0.375,,,,,
1_S7,10/05/2023,13:14:19.300,-0.813,0.188,0.563,,,,,
1_S7,10/05/2023,13:14:19.400,-0.750,0.188,0.688,,,,,
1_S7,10/05/2023,13:14:19.500,-0.625,0.188,0.750,1150.5,780.0,-2575.5,,
1_S7,10/05/2023,13:14:19.600,-0.563,0.188,0.750,,,,,
1_S7,10/05/2023,13:14:19.700,-0.438,0.188,0.813,,,,,
1_S7,10/05/2023,13:14:19.800,-0.500,0.188,0.938,,,,,
1_S7,10/05/2023,13:14:19.900,-0.250,0.063,1.000,,,,,
1_S7,10/05/2023,13:14:20.000,-0.250,0.063,1.000,1308.0,712.5,-2457.0,,
1_S7,10/05/2023,13:14:20.100,-0.125,0.000,0.938,,,,,
1_S7,10/05/2023,13:14:20.200,0.063,-0.125,0.938,,,,,
1_S7,10/05/2023,13:14:20.300,0.000,-0.125,0.938,,,,,
1_S7,10/05/2023,13:14:20.400,0.250,-0.188,0.938,,,,,
1_S7,10/05/2023,13:14:20.500,0.375,-0.188,0.938,1042.5,883.5,-2821.5,,
1_S7,10/05/2023,13:14:20.600,0.375,-0.188,0.875,,,,,
1_S7,10/05/2023,13:14:20.700,0.500,-0.125,0.875,,,,,
1_S7,10/05/2023,13:14:20.800,0.625,-0.063,0.750,,,,,
1_S7,10/05/2023,13:14:20.900,0.750,0.063,0.625,,,,,
1_S7,10/05/2023,13:14:21.000,0.875,-0.063,0.500,-1299.0,1062.0,-2659.5,,
1_S7,10/05/2023,13:14:21.100,0.882,-0.056,0.356,,,,,
1_S7,10/05/2023,13:14:21.200,0.913,-0.025,0.188,,,,,
1_S7,10/05/2023,13:14:21.300,0.850,-0.125,0.169,,,,,
1_S7,10/05/2023,13:14:21.400,0.913,-0.100,-0.050,,,,,
1_S7,10/05/2023,13:14:21.500,0.875,0.000,-0.406,-1126.5,1102.5,-2370.0,,
1_S7,10/05/2023,13:14:21.600,0.763,0.100,-0.613,,,,,
1_S7,10/05/2023,13:14:21.700,0.731,0.125,-0.644,,,,,
1_S7,10/05/2023,13:14:21.800,0.700,0.125,-0.575,,,,,
1_S7,10/05/2023,13:14:21.900,0.688,0.000,-0.688,,,,,
1_S7,10/05/2023,13:14:22.000,0.563,0.125,-0.750,-1128.0,1135.5,-2134.5,,
1_S7,10/05/2023,13:14:22.100,0.500,0.125,-0.813,,,,,
1_S7,10/05/2023,13:14:22.200,0.500,0.125,-0.813,,,,,
1_S7,10/05/2023,13:14:22.300,0.375,0.125,-0.938,,,,,
1_S7,10/05/2023,13:14:22.400,0.313,0.188,-0.938,,,,,
1_S7,10/05/2023,13:14:22.500,0.125,0.188,-0.938,-1047.0,1078.5,-1993.5,,
1_S7,10/05/2023,13:14:22.600,0.000,0.313,-0.875,,,,,
1_S7,10/05/2023,13:14:22.700,-0.125,0.500,-1.000,,,,,
1_S7,10/05/2023,13:14:22.800,0.000,0.563,-0.875,,,,,
1_S7,10/05/2023,13:14:22.900,-0.250,0.625,-0.813,,,,,
1_S7,10/05/2023,13:14:23.000,-0.313,0.750,-0.688,-877.5,868.5,-1954.5,24,
1_S7,10/05/2023,13:14:23.100,-0.375,0.688,-0.625,,,,,
1_S7,10/05/2023,13:14:23.200,-0.500,0.875,-0.500,,,,,
1_S7,10/05/2023,13:14:23.300,-0.625,0.875,-0.375,,,,,
1_S7,10/05/2023,13:14:23.400,-0.688,0.813,-0.313,,,,,
1_S7,10/05/2023,13:14:23.500,-0.625,1.125,0.188,-661.5,693.0,-2101.5,,
1_S7,10/05/2023,13:14:23.600,-0.625,0.750,0.063,,,,,
1_S7,10/05/2023,13:14:23.700,-0.625,0.875,0.125,,,,,
1_S7,10/05/2023,13:14:23.800,-0.688,0.813,0.250,,,,,
1_S7,10/05/2023,13:14:23.900,-0.688,0.750,0.313,,,,,
1_S7,10/05/2023,13:14:24.000,-0.313,0.625,0.688,955.5,288.0,-1480.5,,
1_S7,10/05/2023,13:14:24.100,-0.500,0.813,0.625,,,,,
1_S7,10/05/2023,13:14:24.200,-0.313,0.625,0.875,,,,,
1_S7,10/05/2023,13:14:24.300,-0.438,0.625,0.875,,,,,
1_S7,10/05/2023,13:14:24.400,-0.438,0.625,1.000,,,,,
1_S7,10/05/2023,13:14:24.500,-0.375,0.438,0.875,849.0,357.0,-1707.0,,
1_S7,10/05/2023,13:14:24.600,-0.438,0.313,0.875,,,,,
1_S7,10/05/2023,13:14:24.700,-0.313,0.313,0.875,,,,,
1_S7,10/05/2023,13:14:24.800,-0.250,0.375,1.000,,,,,
1_S7,10/05/2023,13:14:24.900,-0.188,0.250,1.000,,,,,
1_S7,10/05/2023,13:14:25.000,-0.188,0.188,0.938,847.5,414.0,-1914.0,,
1_S7,10/05/2023,13:14:25.100,-0.063,0.188,0.938,,,,,
1_S7,10/05/2023,13:14:25.200,-0.063,0.125,1.000,,,,,
1_S7,10/05/2023,13:14:25.300,0.000,0.063,0.938,,,,,
1_S7,10/05/2023,13:14:25.400,0.000,-0.125,0.938,,,,,
1_S7,10/05/2023,13:14:25.500,0.000,-0.188,0.938,787.5,538.5,-2221.5,,
1_S7,10/05/2023,13:14:25.600,-0.063,-0.188,0.938,,,,,
1_S7,10/05/2023,13:14:25.700,-0.063,-0.250,0.938,,,,,
1_S7,10/05/2023,13:14:25.800,-0.063,-0.375,0.938,,,,,
1_S7,10/05/2023,13:14:25.900,-0.125,-0.375,0.875,,,,,
1_S7,10/05/2023,13:14:26.000,-0.125,-0.500,0.875,-1885.5,418.5,-2949.0,,
1_S7,10/05/2023,13:14:26.100,-0.113,-0.575,0.694,,,,,
1_S7,10/05/2023,13:14:26.200,-0.038,-0.700,0.725,,,,,
1_S7,10/05/2023,13:14:26.300,-0.225,-0.750,0.438,,,,,
1_S7,10/05/2023,13:14:26.400,-0.413,-0.800,-0.050,,,,,
1_S7,10/05/2023,13:14:26.500,-0.563,-0.813,-0.156,-2455.5,346.5,-4489.5,,
1_S7,10/05/2023,13:14:26.600,-0.488,-0.788,-0.300,,,,,
1_S7,10/05/2023,13:14:26.700,-0.569,-0.725,-0.375,,,,,
1_S7,10/05/2023,13:14:26.800,-0.575,-0.638,-0.475,,,,,
1_S7,10/05/2023,13:14:26.900,-0.438,-0.750,-0.563,,,,,
1_S7,10/05/2023,13:14:27.000,-0.313,-0.563,-0.813,480.0,417.0,-6883.5,,
1_S7,10/05/2023,13:14:27.100,-0.188,-0.375,-0.813,,,,,
1_S7,10/05/2023,13:14:27.200,-0.125,-0.313,-0.875,,,,,
1_S7,10/05/2023,13:14:27.300,0.000,-0.125,-0.938,,,,,
1_S7,10/05/2023,13:14:27.400,0.063,-0.188,-1.000,,,,,
1_S7,10/05/2023,13:14:27.500,0.125,-0.063,-1.000,2554.5,1509.0,-1987.5,,
1_S7,10/05/2023,13:14:27.600,0.375,0.125,-0.875,,,,,
1_S7,10/05/2023,13:14:27.700,0.375,0.438,-0.875,,,,,
1_S7,10/05/2023,13:14:27.800,0.188,0.750,-0.750,,,,,
1_S7,10/05/2023,13:14:27.900,0.063,0.875,-0.438,,,,,
1_S7,10/05/2023,13:14:28.000,0.313,0.938,-0.250,798.0,595.5,-1005.0,24,
1_S7,10/05/2023,13:14:28.100,0.375,1.125,-0.125,,,,,
1_S7,10/05/2023,13:14:28.200,0.563,0.938,0.125,,,,,
1_S7,10/05/2023,13:14:28.300,0.625,0.813,0.188,,,,,
1_S7,10/05/2023,13:14:28.400,0.625,0.688,0.438,,,,,
1_S7,10/05/2023,13:14:28.500,0.563,0.688,0.563,417.0,460.5,-772.5,,
1_S7,10/05/2023,13:14:28.600,0.563,0.563,0.688,,,,,
1_S7,10/05/2023,13:14:28.700,0.563,0.500,0.688,,,,,
1_S7,10/05/2023,13:14:28.800,0.500,0.313,0.813,,,,,
1_S7,10/05/2023,13:14:28.900,0.500,0.188,0.938,,,,,
1_S7,10/05/2023,13:14:29.000,0.500,0.125,0.875,534.0,664.5,-696.0,,
1_S7,10/05/2023,13:14:29.100,0.500,0.188,0.813,,,,,
1_S7,10/05/2023,13:14:29.200,0.500,0.188,0.875,,,,,
1_S7,10/05/2023,13:14:29.300,0.438,0.188,0.875,,,,,
1_S7,10/05/2023,13:14:29.400,0.313,0.063,0.938,,,,,
1_S7,10/05/2023,13:14:29.500,0.188,0.063,0.938,604.5,804.0,-760.5,,
1_S7,10/05/2023,13:14:29.600,0.125,0.063,1.000,,,,,
1_S7,10/05/2023,13:14:29.700,0.188,0.000,1.000,,,,,
1_S7,10/05/2023,13:14:29.800,0.188,0.000,0.938,,,,,
1_S7,10/05/2023,13:14:29.900,0.188,-0.063,1.000,,,,,
1_S7,10/05/2023,13:14:30.000,0.063,-0.125,1.063,672.0,828.0,-771.0,,
1_S7,10/05/2023,13:14:30.100,-0.006,-0.131,0.994,,,,,
1_S7,10/05/2023,13:14:30.200,-0.063,-0.213,0.950,,,,,
1_S7,10/05/2023,13:14:30.300,-0.100,-0.256,0.925,,,,,
1_S7,10/05/2023,13:14:30.400,-0.263,-0.200,0.825,,,,,
1_S7,10/05/2023,13:14:30.500,-0.406,-0.344,0.938,859.5,907.5,-591.0,,
1_S7,10/05/2023,13:14:30.600,-0.550,-0.300,0.825,,,,,
1_S7,10/05/2023,13:14:30.700,-0.669,-0.381,0.794,,,,,
1_S7,10/05/2023,13:14:30.800,-0.638,-0.388,0.713,,,,,
1_S7,10/05/2023,13:14:30.900,-0.500,-0.563,0.563,,,,,
1_S7,10/05/2023,13:14:31.000,-0.625,-0.500,0.688,1590.0,1204.5,-681.0,,
1_S7,10/05/2023,13:14:31.100,-0.563,-0.500,0.563,,,,,
1_S7,10/05/2023,13:14:31.200,-0.688,-0.500,0.500,,,,,
1_S7,10/05/2023,13:14:31.300,-0.938,-0.500,0.313,,,,,
1_S7,10/05/2023,13:14:31.400,-0.688,-0.563,0.125,,,,,
1_S7,10/05/2023,13:14:31.500,-0.938,-0.438,-0.250,21880.5,-5566.5,8064.0,,
1_S7,10/05/2023,13:14:31.600,-0.875,-0.500,-0.313,,,,,
1_S7,10/05/2023,13:14:31.700,-0.688,-0.250,-0.313,,,,,
1_S7,10/05/2023,13:14:31.800,-0.813,-0.188,-0.438,,,,,
1_S7,10/05/2023,13:14:31.900,-0.875,-0.250,-0.563,,,,,
1_S7,10/05/2023,13:14:32.000,-0.813,-0.250,-0.563,34185.0,-2377.5,-1150.5,,
1_S7,10/05/2023,13:14:32.100,-0.750,-0.250,-0.625,,,,,
1_S7,10/05/2023,13:14:32.200,-0.500,-0.188,-0.813,,,,,
1_S7,10/05/2023,13:14:32.300,-0.438,-0.188,-0.875,,,,,
1_S7,10/05/2023,13:14:32.400,-0.125,-0.188,-1.000,,,,,
1_S7,10/05/2023,13:14:32.500,-0.063,-0.125,-1.000,33795.0,-3378.0,-841.5,,
1_S7,10/05/2023,13:14:32.600,0.000,-0.125,-0.938,,,,,
1_S7,10/05/2023,13:14:32.700,0.063,-0.125,-1.000,,,,,
1_S7,10/05/2023,13:14:32.800,0.250,-0.125,-1.000,,,,,
1_S7,10/05/2023,13:14:32.900,0.313,-0.125,-0.938,,,,,
1_S7,10/05/2023,13:14:33.000,0.375,-0.125,-0.875,33235.5,-3228.0,-828.0,24,
1_S7,10/05/2023,13:14:33.100,0.500,-0.125,-0.875,,,,,
1_S7,10/05/2023,13:14:33.200,0.688,0.000,-0.813,,,,,
1_S7,10/05/2023,13:14:33.300,0.813,-0.125,-0.688,,,,,
1_S7,10/05/2023,13:14:33.400,0.750,0.000,-0.625,,,,,
1_S7,10/05/2023,13:14:33.500,0.813,0.125,-0.563,3505.5,1264.5,1753.5,,
1_S7,10/05/2023,13:14:33.600,0.938,0.125,-0.313,,,,,
1_S7,10/05/2023,13:14:33.700,0.938,0.000,-0.250,,,,,
1_S7,10/05/2023,13:14:33.800,1.000,0.000,0.063,,,,,
1_S7,10/05/2023,13:14:33.900,0.813,0.000,0.063,,,,,
1_S7,10/05/2023,13:14:34.000,0.875,0.063,0.313,2680.5,643.5,543.0,,
1_S7,10/05/2023,13:14:34.100,0.688,-0.125,0.625,,,,,
1_S7,10/05/2023,13:14:34.200,0.688,-0.125,0.625,,,,,
1_S7,10/05/2023,13:14:34.300,0.563,-0.125,0.688,,,,,
1_S7,10/05/2023,13:14:34.400,0.563,-0.125,0.688,,,,,
1_S7,10/05/2023,13:14:34.500,0.563,0.125,0.813,2730.0,577.5,360.0,,
1_S7,10/05/2023,13:14:34.600,0.375,0.063,0.875,,,,,
1_S7,10/05/2023,13:14:34.700,0.375,0.063,0.875,,,,,
1_S7,10/05/2023,13:14:34.800,0.438,0.125,0.875,,,,,
1_S7,10/05/2023,13:14:34.900,0.375,0.188,0.938,,,,,
1_S7,10/05/2023,13:14:35.000,0.188,0.313,0.813,2887.5,625.5,-43.5,,
1_S7,10/05/2023,13:14:35.100,0.250,0.394,0.925,,,,,
1_S7,10/05/2023,13:14:35.200,0.263,0.575,0.825,,,,,
1_S7,10/05/2023,13:14:35.300,0.275,0.588,0.875,,,,,
1_S7,10/05/2023,13:14:35.400,0.163,0.550,0.875,,,,,
1_S7,10/05/2023,13:14:35.500,0.000,0.656,0.813,1252.5,780.0,-1077.0,,
1_S7,10/05/2023,13:14:35.600,-0.200,0.725,0.713,,,,,
1_S7,10/05/2023,13:14:35.700,-0.250,0.750,0.731,,,,,
1_S7,10/05/2023,13:14:35.800,-0.300,0.800,0.700,,,,,
1_S7,10/05/2023,13:14:35.900,-0.313,0.813,0.625,,,,,
1_S7,10/05/2023,13:14:36.000,-0.438,0.875,0.563,1347.0,714.0,-1362.0,,
1_S7,10/05/2023,13:14:36.100,-0.563,0.938,0.125,,,,,
1_S7,10/05/2023,13:14:36.200,-0.625,0.813,0.188,,,,,
1_S7,10/05/2023,13:14:36.300,-0.688,0.813,0.188,,,,,
1_S7,10/05/2023,13:14:36.400,-0.750,0.750,0.188,,,,,
1_S7,10/05/2023,13:14:36.500,-0.938,0.563,0.063,865.5,543.0,-1551.0,,
1_S7,10/05/2023,13:14:36.600,-0.938,0.438,0.063,,,,,
1_S7,10/05/2023,13:14:36.700,-1.000,0.313,0.188,,,,,
1_S7,10/05/2023,13:14:36.800,-0.938,0.188,0.250,,,,,
1_S7,10/05/2023,13:14:36.900,-0.875,0.000,0.438,,,,,
1_S7,10/05/2023,13:14:37.000,-0.813,-0.063,0.500,873.0,724.5,-1602.0,,
1_S7,10/05/2023,13:14:37.100,-0.813,-0.125,0.625,,,,,
1_S7,10/05/2023,13:14:37.200,-0.438,-0.188,1.063,,,,,
1_S7,10/05/2023,13:14:37.300,-0.563,-0.250,0.813,,,,,
1_S7,10/05/2023,13:14:37.400,-0.500,-0.313,0.813,,,,,
1_S7,10/05/2023,13:14:37.500,-0.375,-0.375,0.813,750.0,819.0,-1948.5,,
1_S7,10/05/2023,13:14:37.600,-0.438,-0.500,0.875,,,,,
1_S7,10/05/2023,13:14:37.700,-0.375,-0.438,0.875,,,,,
1_S7,10/05/2023,13:14:37.800,-0.313,-0.500,0.813,,,,,
1_S7,10/05/2023,13:14:37.900,-0.188,-0.438,0.875,,,,,
1_S7,10/05/2023,13:14:38.000,-0.063,-0.250,0.938,720.0,792.0,-2253.0,24,
1_S7,10/05/2023,13:14:38.100,0.063,-0.125,1.000,,,,,
1_S7,10/05/2023,13:14:38.200,0.188,-0.063,1.000,,,,,
1_S7,10/05/2023,13:14:38.300,0.188,0.125,0.938,,,,,
1_S7,10/05/2023,13:14:38.400,0.250,0.250,0.938,,,,,
1_S7,10/05/2023,13:14:38.500,0.313,0.313,0.938,466.5,480.0,-1548.0,,
1_S7,10/05/2023,13:14:38.600,0.313,0.375,0.875,,,,,
1_S7,10/05/2023,13:14:38.700,0.375,0.500,0.750,,,,,
1_S7,10/05/2023,13:14:38.800,0.313,0.563,0.750,,,,,
1_S7,10/05/2023,13:14:38.900,0.250,0.500,0.875,,,,,
1_S7,10/05/2023,13:14:39.000,0.125,0.563,0.875,523.5,490.5,-936.0,,
1_S7,10/05/2023,13:14:39.100,0.063,0.563,0.875,,,,,
1_S7,10/05/2023,13:14:39.200,0.063,0.563,0.813,,,,,
1_S7,10/05/2023,13:14:39.300,-0.063,0.500,0.875,,,,,
1_S7,10/05/2023,13:14:39.400,-0.250,0.500,0.875,,,,,
1_S7,10/05/2023,13:14:39.500,-0.375,0.438,0.875,627.0,588.0,-1549.5,,
1_S7,10/05/2023,13:14:39.600,-0.375,0.500,0.813,,,,,
1_S7,10/05/2023,13:14:39.700,-0.375,0.563,0.875,,,,,
1_S7,10/05/2023,13:14:39.800,-0.250,0.563,0.875,,,,,
1_S7,10/05/2023,13:14:39.900,-0.375,0.500,0.875,,,,,
1_S7,10/05/2023,13:14:40.000,-0.313,0.500,0.875,546.0,513.0,-1623.0,,
1_S7,10/05/2023,13:14:40.100,-0.375,0.431,0.813,,,,,
1_S7,10/05/2023,13:14:40.200,-0.400,0.363,0.825,,,,,
1_S7,10/05/2023,13:14:40.300,-0.481,0.294,0.875,,,,,
1_S7,10/05/2023,13:14:40.400,-0.513,0.175,0.825,,,,,
1_S7,10/05/2023,13:14:40.500,-0.625,-0.125,0.750,750.0,691.5,-1786.5,,
1_S7,10/05/2023,13:14:40.600,-0.738,-0.313,0.600,,,,,
1_S7,10/05/2023,13:14:40.700,-0.769,-0.400,0.588,,,,,
1_S7,10/05/2023,13:14:40.800,-0.850,-0.438,0.425,,,,,
1_S7,10/05/2023,13:14:40.900,-0.750,-0.625,0.250,,,,,
1_S7,10/05/2023,13:14:41.000,-0.688,-0.813,0.063,1680.0,1201.5,-1935.0,,
1_S7,10/05/2023,13:14:41.100,-0.625,-0.750,-0.063,,,,,
1_S7,10/05/2023,13:14:41.200,-0.375,-0.875,-0.125,,,,,
1_S7,10/05/2023,13:14:41.300,-0.313,-1.000,-0.125,,,,,
1_S7,10/05/2023,13:14:41.400,-0.125,-0.938,0.125,,,,,
1_S7,10/05/2023,13:14:41.500,0.000,-1.000,0.313,1749.0,1504.5,-2055.0,,
1_S7,10/05/2023,13:14:41.600,0.188,-0.938,0.313,,,,,
1_S7,10/05/2023,13:14:41.700,0.188,-0.750,0.625,,,,,
1_S7,10/05/2023,13:14:41.800,0.125,-0.625,0.750,,,,,
1_S7,10/05/2023,13:14:41.900,0.063,-0.500,0.875,,,,,
1_S7,10/05/2023,13:14:42.000,0.000,-0.250,1.000,-2761.5,-61.5,-4351.5,,
1_S7,10/05/2023,13:14:42.100,0.000,0.000,0.938,,,,,
1_S7,10/05/2023,13:14:42.200,0.000,0.375,1.000,,,,,
1_S7,10/05/2023,13:14:42.300,0.000,0.438,0.875,,,,,
1_S7,10/05/2023,13:14:42.400,0.000,0.563,0.813,,,,,
1_S7,10/05/2023,13:14:42.500,0.000,0.563,0.875,-2641.5,-190.5,-3760.5,,
1_S7,10/05/2023,13:14:42.600,0.063,0.563,0.813,,,,,
1_S7,10/05/2023,13:14:42.700,0.000,0.563,0.875,,,,,
1_S7,10/05/2023,13:14:42.800,0.000,0.500,0.938,,,,,
1_S7,10/05/2023,13:14:42.900,-0.063,0.438,0.938,,,,,
1_S7,10/05/2023,13:14:43.000,-0.063,0.438,0.938,-2716.5,-31.5,-3733.5,24,
1_S7,10/05/2023,13:14:43.100,-0.063,0.438,0.938,,,,,
1_S7,10/05/2023,13:14:43.200,-0.188,0.375,0.938,,,,,
1_S7,10/05/2023,13:14:43.300,-0.313,0.313,0.938,,,,,
1_S7,10/05/2023,13:14:43.400,-0.375,0.250,0.938,,,,,
1_S7,10/05/2023,13:14:43.500,-0.500,0.313,0.875,-2436.0,186.0,-3708.0,,
1_S7,10/05/2023,13:14:43.600,-0.688,0.250,0.750,,,,,
1_S7,10/05/2023,13:14:43.700,-0.875,0.188,0.563,,,,,
1_S7,10/05/2023,13:14:43.800,-0.938,0.063,0.375,,,,,
1_S7,10/05/2023,13:14:43.900,-1.000,-0.063,0.188,,,,,
1_S7,10/05/2023,13:14:44.000,-1.000,-0.188,0.063,-1390.5,694.5,-2782.5,,
1_S7,10/05/2023,13:14:44.100,-0.994,-0.194,-0.131,,,,,
1_S7,10/05/2023,13:14:44.200,-0.925,-0.225,-0.200,,,,,
1_S7,10/05/2023,13:14:44.300,-0.875,-0.106,-0.325,,,,,
1_S7,10/05/2023,13:14:44.400,-1.000,-0.088,-0.550,,,,,
1_S7,10/05/2023,13:14:44.500,-0.969,0.000,-0.688,-156.0,1074.0,-3450.0,,
1_S7,10/05/2023,13:14:44.600,-0.713,0.163,-0.788,,,,,
1_S7,10/05/2023,13:14:44.700,-0.644,0.275,-0.813,,,,,
1_S7,10/05/2023,13:14:44.800,-0.375,0.413,-0.863,,,,,
1_S7,10/05/2023,13:14:44.900,-0.313,0.438,-0.875,,,,,
1_S7,10/05/2023,13:14:45.000,0.000,0.750,-0.750,1209.0,979.5,-1194.0,,
1_S7,10/05/2023,13:14:45.100,0.125,0.875,-0.563,,,,,
1_S7,10/05/2023,13:14:45.200,0.125,0.938,-0.313,,,,,
1_S7,10/05/2023,13:14:45.300,0.250,1.063,-0.188,,,,,
1_S7,10/05/2023,13:14:45.400,0.250,1.063,-0.125,,,,,
1_S7,10/05/2023,13:14:45.500,0.250,1.063,0.063,499.5,462.0,-906.0,,
1_S7,10/05/2023,13:14:45.600,0.250,0.938,0.125,,,,,
1_S7,10/05/2023,13:14:45.700,0.063,0.938,0.625,,,,,
1_S7,10/05/2023,13:14:45.800,0.000,0.750,0.313,,,,,
1_S7,10/05/2023,13:14:45.900,0.063,0.688,0.875,,,,,
1_S7,10/05/2023,13:14:46.000,0.000,0.625,0.813,487.5,412.5,-1360.5,,
1_S7,10/05/2023,13:14:46.100,0.000,0.625,0.938,,,,,
1_S7,10/05/2023,13:14:46.200,-0.063,0.500,0.813,,,,,
1_S7,10/05/2023,13:14:46.300,-0.063,0.438,1.000,,,,,
1_S7,10/05/2023,13:14:46.400,-0.188,0.313,1.000,,,,,
1_S7,10/05/2023,13:14:46.500,-0.188,0.438,1.000,540.0,487.5,-1510.5,,
1_S7,10/05/2023,13:14:46.600,-0.250,0.313,0.938,,,,,
1_S7,10/05/2023,13:14:46.700,-0.313,0.375,0.938,,,,,
1_S7,10/05/2023,13:14:46.800,-0.188,0.250,0.750,,,,,
1_S7,10/05/2023,13:14:46.900,-0.375,0.250,0.938,,,,,
1_S7,10/05/2023,13:14:47.000,-0.250,-0.063,0.938,552.0,525.0,-1603.5,,
1_S7,10/05/2023,13:14:47.100,-0.375,0.063,0.938,,,,,
1_S7,10/05/2023,13:14:47.200,-0.438,0.063,0.938,,,,,
1_S7,10/05/2023,13:14:47.300,-0.438,-0.063,0.938,,,,,
1_S7,10/05/2023,13:14:47.400,-0.375,-0.125,0.875,,,,,
1_S7,10/05/2023,13:14:47.500,-0.375,-0.188,0.875,-1528.5,526.5,-2653.5,,
1_S7,10/05/2023,13:14:47.600,-0.313,-0.375,0.688,,,,,
1_S7,10/05/2023,13:14:47.700,-0.500,-0.500,0.750,,,,,
1_S7,10/05/2023,13:14:47.800,-0.438,-0.500,0.750,,,,,
1_S7,10/05/2023,13:14:47.900,-0.313,-0.438,0.625,,,,,
1_S7,10/05/2023,13:14:48.000,-0.313,-0.625,0.500,-2142.0,408.0,-3172.5,24,
1_S7,10/05/2023,13:14:48.100,-0.563,-3.001,0.688,,,,,
1_S7,10/05/2023,13:14:48.200,-0.500,-0.875,0.125,,,,,
1_S7,10/05/2023,13:14:48.300,-0.500,-0.750,-0.125,,,,,
1_S7,10/05/2023,13:14:48.400,-0.438,-0.875,-0.125,,,,,
1_S7,10/05/2023,13:14:48.500,-0.313,-0.938,-0.250,609.0,1095.0,-8884.5,,
1_S7,10/05/2023,13:14:48.600,-0.250,-0.813,-0.250,,,,,
1_S7,10/05/2023,13:14:48.700,0.125,-0.875,-0.563,,,,,
1_S7,10/05/2023,13:14:48.800,0.063,-0.813,-0.625,,,,,
1_S7,10/05/2023,13:14:48.900,0.063,-0.813,-0.563,,,,,
1_S7,10/05/2023,13:14:49.000,0.188,-0.813,-0.375,5026.5,196.5,-10509.0,,
1_S7,10/05/2023,13:14:49.100,0.388,-0.813,-0.250,,,,,
1_S7,10/05/2023,13:14:49.200,0.500,-0.813,-0.263,,,,,
1_S7,10/05/2023,13:14:49.300,0.556,-0.832,-0.256,,,,,
1_S7,10/05/2023,13:14:49.400,0.663,-0.775,-0.075,,,,,
1_S7,10/05/2023,13:14:49.500,0.625,-0.594,0.094,5088.0,-12.0,-11067.0,,
1_S7,10/05/2023,13:14:49.600,0.700,-0.525,0.300,,,,,
1_S7,10/05/2023,13:14:49.700,0.663,-0.544,0.419,,,,,
1_S7,10/05/2023,13:14:49.800,0.575,-0.563,0.588,,,,,
1_S7,10/05/2023,13:14:49.900,0.250,-0.563,0.625,,,,,
1_S7,10/05/2023,13:14:50.000,0.188,-0.625,0.875,6115.5,922.5,-11748.0,,
1_S7,10/05/2023,13:14:50.100,0.188,-0.563,0.938,,,,,
1_S7,10/05/2023,13:14:50.200,-0.125,-0.625,0.875,,,,,
1_S7,10/05/2023,13:14:50.300,-0.125,-0.500,0.875,,,,,
1_S7,10/05/2023,13:14:50.400,-0.375,-0.563,0.750,,,,,
1_S7,10/05/2023,13:14:50.500,-0.500,-0.500,0.563,2403.0,751.5,-10431.0,,
1_S7,10/05/2023,13:14:50.600,-0.500,-0.250,0.688,,,,,
1_S7,10/05/2023,13:14:50.700,-1.000,-0.188,0.500,,,,,
1_S7,10/05/2023,13:14:50.800,-1.000,-0.063,0.188,,,,,
1_S7,10/05/2023,13:14:50.900,-0.813,0.188,0.375,,,,,
1_S7,10/05/2023,13:14:51.000,-0.875,0.438,0.438,-727.5,867.0,-2367.0,,
1_S7,10/05/2023,13:14:51.100,-0.750,0.625,0.500,,,,,
1_S7,10/05/2023,13:14:51.200,-0.625,0.688,0.438,,,,,
1_S7,10/05/2023,13:14:51.300,-0.625,0.813,0.375,,,,,
1_S7,10/05/2023,13:14:51.400,-0.438,0.750,0.438,,,,,
1_S7,10/05/2023,13:14:51.500,-0.375,0.875,0.500,-117.0,660.0,-2385.0,,
1_S7,10/05/2023,13:14:51.600,-0.313,0.938,0.375,,,,,
1_S7,10/05/2023,13:14:51.700,0.000,0.813,0.813,,,,,
1_S7,10/05/2023,13:14:51.800,-0.125,0.938,0.563,,,,,
1_S7,10/05/2023,13:14:51.900,-0.063,0.813,0.688,,,,,
1_S7,10/05/2023,13:14:52.000,-0.125,0.938,0.438,195.0,657.0,-2496.0,,
1_S7,10/05/2023,13:14:52.100,-0.125,0.938,0.500,,,,,
1_S7,10/05/2023,13:14:52.200,-0.250,1.000,0.375,,,,,
1_S7,10/05/2023,13:14:52.300,-0.063,1.000,0.438,,,,,
1_S7,10/05/2023,13:14:52.400,0.000,1.063,0.375,,,,,
1_S7,10/05/2023,13:14:52.500,0.125,0.938,0.188,166.5,585.0,-2337.0,,
1_S7,10/05/2023,13:14:52.600,0.313,1.000,0.250,,,,,
1_S7,10/05/2023,13:14:52.700,0.500,0.938,0.250,,,,,
1_S7,10/05/2023,13:14:52.800,0.500,0.938,0.125,,,,,
1_S7,10/05/2023,13:14:52.900,0.563,0.875,0.063,,,,,
1_S7,10/05/2023,13:14:53.000,0.313,0.750,0.188,-1.5,597.0,-2268.0,24,
1_S7,10/05/2023,13:14:53.100,0.625,0.875,0.063,,,,,
1_S7,10/05/2023,13:14:53.200,0.688,0.625,-0.063,,,,,
1_S7,10/05/2023,13:14:53.300,0.688,0.813,-0.125,,,,,
1_S7,10/05/2023,13:14:53.400,0.688,0.750,0.063,,,,,
1_S7,10/05/2023,13:14:53.500,0.688,0.813,0.063,256.5,627.0,-2080.5,,
1_S7,10/05/2023,13:14:53.600,0.438,0.875,-0.188,,,,,
1_S7,10/05/2023,13:14:53.700,0.563,0.938,-0.313,,,,,
1_S7,10/05/2023,13:14:53.800,1.250,1.250,-0.188,,,,,
1_S7,10/05/2023,13:14:53.900,0.500,0.750,-0.125,,,,,
1_S7,10/05/2023,13:14:54.000,0.813,0.688,-0.125,1723.5,658.5,-1114.5,,
1_S7,10/05/2023,13:14:54.100,0.838,0.463,-0.156,,,,,
1_S7,10/05/2023,13:14:54.200,0.588,0.075,-0.325,,,,,
1_S7,10/05/2023,13:14:54.300,0.938,-0.106,0.125,,,,,
1_S7,10/05/2023,13:14:54.400,0.913,-0.163,0.150,,,,,
1_S7,10/05/2023,13:14:54.500,0.875,-0.406,0.156,3957.0,75.0,772.5,,
1_S7,10/05/2023,13:14:54.600,0.725,-0.463,0.125,,,,,
1_S7,10/05/2023,13:14:54.700,0.581,-0.613,0.169,,,,,
1_S7,10/05/2023,13:14:54.800,0.513,-0.688,0.238,,,,,
1_S7,10/05/2023,13:14:54.900,0.375,-0.813,0.250,,,,,
1_S7,10/05/2023,13:14:55.000,0.375,-0.750,0.438,12745.5,-6406.5,6657.0,,
1_S7,10/05/2023,13:14:55.100,0.375,-0.750,0.438,,,,,
1_S7,10/05/2023,13:14:55.200,0.188,-0.813,0.375,,,,,
1_S7,10/05/2023,13:14:55.300,0.188,-0.938,0.375,,,,,
1_S7,10/05/2023,13:14:55.400,0.125,-0.938,0.313,,,,,
1_S7,10/05/2023,13:14:55.500,0.125,-0.938,0.125,-12072.0,5268.0,10912.5,,
1_S7,10/05/2023,13:14:55.600,0.000,-0.938,-0.125,,,,,
1_S7,10/05/2023,13:14:55.700,-0.063,-1.000,0.188,,,,,
1_S7,10/05/2023,13:14:55.800,-0.188,-0.875,-0.250,,,,,
1_S7,10/05/2023,13:14:55.900,-0.188,-1.000,-0.125,,,,,
1_S7,10/05/2023,13:14:56.000,-0.313,-0.875,-0.313,-7116.0,3114.0,16297.5,,
1_S7,10/05/2023,13:14:56.100,-0.375,-0.813,-0.375,,,,,
1_S7,10/05/2023,13:14:56.200,-0.500,-0.750,-0.438,,,,,
1_S7,10/05/2023,13:14:56.300,-0.625,-0.625,-0.563,,,,,
1_S7,10/05/2023,13:14:56.400,-0.375,-0.438,-0.625,,,,,
1_S7,10/05/2023,13:14:56.500,-0.625,-0.500,-0.813,7677.0,1564.5,-4764.0,,
1_S7,10/05/2023,13:14:56.600,-0.688,-0.188,-0.750,,,,,
1_S7,10/05/2023,13:14:56.700,-0.625,-0.063,-0.563,,,,,
1_S7,10/05/2023,13:14:56.800,-0.875,0.063,-0.750,,,,,
1_S7,10/05/2023,13:14:56.900,-0.875,0.375,-0.500,,,,,
1_S7,10/05/2023,13:14:57.000,-0.813,0.438,-0.375,927.0,990.0,-1779.0,,
1_S7,10/05/2023,13:14:57.100,-0.813,0.563,-0.375,,,,,
1_S7,10/05/2023,13:14:57.200,-0.750,0.563,-0.125,,,,,
1_S7,10/05/2023,13:14:57.300,-0.813,0.625,-0.250,,,,,
1_S7,10/05/2023,13:14:57.400,-0.750,0.750,-0.125,,,,,
1_S7,10/05/2023,13:14:57.500,-0.750,0.875,0.000,1077.0,570.0,-1399.5,,
1_S7,10/05/2023,13:14:57.600,-0.563,0.813,0.375,,,,,
1_S7,10/05/2023,13:14:57.700,-0.625,0.750,0.375,,,,,
1_S7,10/05/2023,13:14:57.800,-0.625,0.688,0.625,,,,,
1_S7,10/05/2023,13:14:57.900,-0.563,0.625,0.438,,,,,
1_S7,10/05/2023,13:14:58.000,-0.375,0.563,0.813,921.0,363.0,-1546.5,24,
1_S7,10/05/2023,13:14:58.100,-0.313,0.438,0.813,,,,,
1_S7,10/05/2023,13:14:58.200,-0.500,0.625,1.188,,,,,
1_S7,10/05/2023,13:14:58.300,-0.125,0.125,1.063,,,,,
1_S7,10/05/2023,13:14:58.400,-0.125,0.125,0.938,,,,,
1_S7,10/05/2023,13:14:58.500,-0.188,0.063,1.000,783.0,457.5,-1842.0,,
1_S7,10/05/2023,13:14:58.600,-0.188,0.000,0.875,,,,,
1_S7,10/05/2023,13:14:58.700,-0.063,0.000,1.000,,,,,
1_S7,10/05/2023,13:14:58.800,-0.125,-0.125,0.813,,,,,
1_S7,10/05/2023,13:14:58.900,-0.188,-0.188,0.875,,,,,
1_S7,10/05/2023,13:14:59.000,-0.063,-0.188,1.000,766.5,687.0,-2362.5,,
1_S7,10/05/2023,13:14:59.100,-0.125,-0.388,0.875,,,,,
1_S7,10/05/2023,13:14:59.200,-0.125,-0.525,0.838,,,,,
1_S7,10/05/2023,13:14:59.300,-0.144,-0.700,0.669,,,,,
1_S7,10/05/2023,13:14:59.400,-0.138,-0.900,0.525,,,,,
1_S7,10/05/2023,13:14:59.500,-0.156,-0.907,0.219,-2581.5,237.0,-4462.5,,
1_S7,10/05/2023,13:14:59.600,-0.325,-0.913,-0.163,,,,,
1_S7,10/05/2023,13:14:59.700,-0.288,-0.807,-0.531,,,,,
1_S7,10/05/2023,13:14:59.800,-0.300,-0.600,-0.775,,,,,
1_S7,10/05/2023,13:14:59.900,-0.313,-0.500,-0.688,,,,,
1_S7,10/05/2023,13:15:00.000,-0.063,-0.500,-0.875,4264.5,1978.5,-6159.0,,
1_S7,10/05/2023,13:15:00.100,-0.125,-0.313,-0.875,,,,,
1_S7,10/05/2023,13:15:00.200,-0.188,-0.313,-0.875,,,,,
1_S7,10/05/2023,13:15:00.300,-0.188,-0.500,-1.000,,,,,
1_S7,10/05/2023,13:15:00.400,0.000,-0.063,-0.938,,,,,
1_S7,10/05/2023,13:15:00.500,0.000,0.250,-0.875,3315.0,1846.5,-2187.0,,
1_S7,10/05/2023,13:15:00.600,0.063,0.563,-1.125,,,,,
1_S7,10/05/2023,13:15:00.700,-0.063,0.563,-0.688,,,,,
1_S7,10/05/2023,13:15:00.800,-0.125,0.750,-0.750,,,,,
1_S7,10/05/2023,13:15:00.900,-0.250,0.875,-0.688,,,,,
1_S7,10/05/2023,13:15:01.000,-0.188,1.063,-0.500,720.0,684.0,-1092.0,,
1_S7,10/05/2023,13:15:01.100,-0.125,1.063,-0.188,,,,,
1_S7,10/05/2023,13:15:01.200,-0.125,1.063,0.125,,,,,
1_S7,10/05/2023,13:15:01.300,-0.063,1.063,0.313,,,,,
1_S7,10/05/2023,13:15:01.400,-0.188,0.938,0.625,,,,,
1_S7,10/05/2023,13:15:01.500,-0.063,0.813,0.625,654.0,316.5,-1383.0,,
1_S7,10/05/2023,13:15:01.600,-0.125,0.625,0.938,,,,,
1_S7,10/05/2023,13:15:01.700,-0.125,0.500,0.938,,,,,
1_S7,10/05/2023,13:15:01.800,-0.063,0.438,0.875,,,,,
1_S7,10/05/2023,13:15:01.900,-0.063,0.438,0.938,,,,,
1_S7,10/05/2023,13:15:02.000,0.000,0.375,0.938,601.5,375.0,-1605.0,,
1_S7,10/05/2023,13:15:02.100,0.000,0.375,1.000,,,,,
1_S7,10/05/2023,13:15:02.200,0.188,0.250,1.000,,,,,
1_S7,10/05/2023,13:15:02.300,0.188,0.188,1.000,,,,,
1_S7,10/05/2023,13:15:02.400,0.250,0.063,0.938,,,,,
1_S7,10/05/2023,13:15:02.500,0.250,0.063,0.875,492.0,529.5,-1662.0,,
1_S7,10/05/2023,13:15:02.600,0.375,-0.188,0.875,,,,,
1_S7,10/05/2023,13:15:02.700,0.500,-0.188,0.875,,,,,
1_S7,10/05/2023,13:15:02.800,0.500,-0.375,0.813,,,,,
1_S7,10/05/2023,13:15:02.900,0.438,-0.375,0.750,,,,,
1_S7,10/05/2023,13:15:03.000,0.375,-0.438,0.750,3418.5,-120.0,2037.0,24,
1_S7,10/05/2023,13:15:03.100,0.313,-0.500,0.744,,,,,
1_S7,10/05/2023,13:15:03.200,0.300,-0.538,0.675,,,,,
1_S7,10/05/2023,13:15:03.300,0.231,-0.706,0.606,,,,,
1_S7,10/05/2023,13:15:03.400,0.188,-0.775,0.563,,,,,
1_S7,10/05/2023,13:15:03.500,0.219,-0.750,0.531,-391.5,-1303.5,11754.0,,
1_S7,10/05/2023,13:15:03.600,0.213,-0.763,0.463,,,,,
1_S7,10/05/2023,13:15:03.700,0.188,-0.813,0.481,,,,,
1_S7,10/05/2023,13:15:03.800,0.138,-0.913,0.400,,,,,
1_S7,10/05/2023,13:15:03.900,0.125,-0.938,0.188,,,,,
1_S7,10/05/2023,13:15:04.000,0.000,-0.688,-0.250,-301.5,-1191.0,11862.0,,
1_S7,10/05/2023,13:15:04.100,0.063,-0.875,-0.188,,,,,
1_S7,10/05/2023,13:15:04.200,0.125,-0.938,-0.313,,,,,
1_S7,10/05/2023,13:15:04.300,0.125,-0.875,-0.438,,,,,
1_S7,10/05/2023,13:15:04.400,0.063,-0.813,-0.563,,,,,
1_S7,10/05/2023,13:15:04.500,0.063,-0.625,-0.438,-823.5,-96.0,12603.0,,
1_S7,10/05/2023,13:15:04.600,-0.438,-1.125,-1.188,,,,,
1_S7,10/05/2023,13:15:04.700,0.000,-0.688,-0.813,,,,,
1_S7,10/05/2023,13:15:04.800,-0.063,-0.563,-0.750,,,,,
1_S7,10/05/2023,13:15:04.900,-0.188,-0.500,-0.938,,,,,
1_S7,10/05/2023,13:15:05.000,-0.063,-0.375,-0.938,6138.0,2461.5,-3781.5,,
1_S7,10/05/2023,13:15:05.100,-0.063,-0.188,-1.000,,,,,
1_S7,10/05/2023,13:15:05.200,0.000,-0.250,-1.000,,,,,
1_S7,10/05/2023,13:15:05.300,-0.063,-0.125,-1.000,,,,,
1_S7,10/05/2023,13:15:05.400,-0.063,0.063,-1.000,,,,,
1_S7,10/05/2023,13:15:05.500,-0.125,0.000,-1.125,2692.5,1665.0,-2214.0,,
1_S7,10/05/2023,13:15:05.600,-0.250,0.000,-0.938,,,,,
1_S7,10/05/2023,13:15:05.700,-0.250,0.063,-0.938,,,,,
1_S7,10/05/2023,13:15:05.800,-0.188,0.313,-1.063,,,,,
1_S7,10/05/2023,13:15:05.900,-0.188,0.438,-0.875,,,,,
1_S7,10/05/2023,13:15:06.000,-0.500,0.875,-1.063,1236.0,1057.5,-1327.5,,
1_S7,10/05/2023,13:15:06.100,-0.125,0.938,-0.375,,,,,
1_S7,10/05/2023,13:15:06.200,-0.063,0.938,-0.188,,,,,
1_S7,10/05/2023,13:15:06.300,-0.188,1.063,0.000,,,,,
1_S7,10/05/2023,13:15:06.400,-0.063,0.875,0.188,,,,,
1_S7,10/05/2023,13:15:06.500,-0.500,0.938,0.438,730.5,307.5,-1284.0,,
1_S7,10/05/2023,13:15:06.600,-0.500,0.875,0.500,,,,,
1_S7,10/05/2023,13:15:06.700,-0.500,0.750,0.500,,,,,
1_S7,10/05/2023,13:15:06.800,-0.688,0.750,0.438,,,,,
1_S7,10/05/2023,13:15:06.900,-0.688,0.688,0.500,,,,,
1_S7,10/05/2023,13:15:07.000,-0.875,0.563,0.250,1252.5,414.0,-1492.5,,
1_S7,10/05/2023,13:15:07.100,-0.938,0.438,0.188,,,,,
1_S7,10/05/2023,13:15:07.200,-1.000,0.375,0.063,,,,,
1_S7,10/05/2023,13:15:07.300,-0.938,0.313,0.125,,,,,
1_S7,10/05/2023,13:15:07.400,-1.000,0.188,0.125,,,,,
1_S7,10/05/2023,13:15:07.500,-0.938,0.063,0.188,1834.5,765.0,-1602.0,,
1_S7,10/05/2023,13:15:07.600,-1.063,-0.188,0.375,,,,,
1_S7,10/05/2023,13:15:07.700,-0.875,-0.250,0.438,,,,,
1_S7,10/05/2023,13:15:07.800,-0.875,-0.375,0.500,,,,,
1_S7,10/05/2023,13:15:07.900,-0.625,-0.375,0.750,,,,,
1_S7,10/05/2023,13:15:08.000,-0.750,-0.500,0.875,-1695.0,361.5,-3570.0,24,
1_S7,10/05/2023,13:15:08.100,-0.338,-0.313,0.819,,,,,
1_S7,10/05/2023,13:15:08.200,0.038,-0.275,0.888,,,,,
1_S7,10/05/2023,13:15:08.300,0.206,-0.125,0.919,,,,,
1_S7,10/05/2023,13:15:08.400,0.275,-0.125,0.825,,,,,
1_S7,10/05/2023,13:15:08.500,0.375,-0.125,0.813,-2601.0,-43.5,-4165.5,,
1_S7,10/05/2023,13:15:08.600,0.588,-0.163,0.725,,,,,
1_S7,10/05/2023,13:15:08.700,0.600,-0.144,0.756,,,,,
1_S7,10/05/2023,13:15:08.800,0.713,-0.125,0.613,,,,,
1_S7,10/05/2023,13:15:08.900,0.813,-0.188,0.500,,,,,
1_S7,10/05/2023,13:15:09.000,0.938,-0.188,0.313,-2890.5,-42.0,-4252.5,,
1_S7,10/05/2023,13:15:09.100,0.875,-0.125,0.188,,,,,
1_S7,10/05/2023,13:15:09.200,0.875,0.063,0.063,,,,,
1_S7,10/05/2023,13:15:09.300,1.000,-0.063,-0.125,,,,,
1_S7,10/05/2023,13:15:09.400,0.938,-0.563,-0.188,,,,,
1_S7,10/05/2023,13:15:09.500,0.875,0.000,-0.313,4237.5,1483.5,-8074.5,,
1_S7,10/05/2023,13:15:09.600,1.063,-0.125,-0.313,,,,,
1_S7,10/05/2023,13:15:09.700,0.875,-0.375,-0.313,,,,,
1_S7,10/05/2023,13:15:09.800,0.813,-0.188,-0.188,,,,,
1_S7,10/05/2023,13:15:09.900,0.875,-0.188,-0.188,,,,,
1_S7,10/05/2023,13:15:10.000,0.313,0.000,-0.563,5586.0,3279.0,-6154.5,,
1_S7,10/05/2023,13:15:10.100,0.500,0.063,-0.750,,,,,
1_S7,10/05/2023,13:15:10.200,0.688,0.063,-0.750,,,,,
1_S7,10/05/2023,13:15:10.300,0.750,-0.063,-0.688,,,,,
1_S7,10/05/2023,13:15:10.400,0.688,-0.188,-0.438,,,,,
1_S7,10/05/2023,13:15:10.500,0.938,-0.375,-0.375,3358.5,861.0,987.0,,
1_S7,10/05/2023,13:15:10.600,0.875,-0.438,-0.063,,,,,
1_S7,10/05/2023,13:15:10.700,0.375,-0.813,0.750,,,,,
1_S7,10/05/2023,13:15:10.800,0.250,-0.875,0.500,,,,,
1_S7,10/05/2023,13:15:10.900,0.063,-0.688,0.625,,,,,
1_S7,10/05/2023,13:15:11.000,0.063,-0.688,0.750,25767.0,24261.0,799.5,,
1_S7,10/05/2023,13:15:11.100,0.000,-0.875,0.938,,,,,
1_S7,10/05/2023,13:15:11.200,0.000,-0.438,0.938,,,,,
1_S7,10/05/2023,13:15:11.300,-0.375,0.063,0.813,,,,,
1_S7,10/05/2023,13:15:11.400,-0.625,0.000,0.813,,,,,
1_S7,10/05/2023,13:15:11.500,-0.625,0.188,0.875,39744.0,1147.5,1525.5,,
1_S7,10/05/2023,13:15:11.600,-0.688,0.313,0.750,,,,,
1_S7,10/05/2023,13:15:11.700,-0.625,0.125,0.750,,,,,
1_S7,10/05/2023,13:15:11.800,-0.750,0.563,0.375,,,,,
1_S7,10/05/2023,13:15:11.900,-0.875,0.438,0.375,,,,,
1_S7,10/05/2023,13:15:12.000,-0.938,0.563,0.250,6645.0,1398.0,-5638.5,,
1_S7,10/05/2023,13:15:12.100,-1.000,0.563,0.500,,,,,
1_S7,10/05/2023,13:15:12.200,-0.813,0.563,0.250,,,,,
1_S7,10/05/2023,13:15:12.300,-0.688,0.500,0.375,,,,,
1_S7,10/05/2023,13:15:12.400,-0.688,0.875,0.563,,,,,
1_S7,10/05/2023,13:15:12.500,0.250,0.813,0.500,853.5,286.5,-1291.5,,
1_S7,10/05/2023,13:15:12.600,0.313,0.938,0.563,,,,,
1_S7,10/05/2023,13:15:12.700,0.125,0.688,0.625,,,,,
1_S7,10/05/2023,13:15:12.800,-0.125,0.813,0.750,,,,,
1_S7,10/05/2023,13:15:12.900,0.000,0.750,0.500,,,,,
1_S7,10/05/2023,13:15:13.000,-0.313,0.625,1.063,811.5,337.5,-1542.0,24,
1_S7,10/05/2023,13:15:13.100,-0.375,0.494,1.069,,,,,
1_S7,10/05/2023,13:15:13.200,-0.413,0.413,1.063,,,,,
1_S7,10/05/2023,13:15:13.300,-0.619,0.463,1.094,,,,,
1_S7,10/05/2023,13:15:13.400,-0.625,0.613,1.425,,,,,
1_S7,10/05/2023,13:15:13.500,-0.406,0.188,0.938,1081.5,762.0,-1470.0,,
1_S7,10/05/2023,13:15:13.600,-0.413,0.063,0.863,,,,,
1_S7,10/05/2023,13:15:13.700,-0.350,0.063,0.900,,,,,
1_S7,10/05/2023,13:15:13.800,-0.313,0.063,0.888,,,,,
1_S7,10/05/2023,13:15:13.900,-0.250,0.063,1.000,,,,,
1_S7,10/05/2023,13:15:14.000,-0.313,0.063,0.938,1281.0,903.0,-1104.0,,
1_S7,10/05/2023,13:15:14.100,-0.125,0.125,0.063,,,,,
1_S7,10/05/2023,13:15:14.200,0.250,0.188,0.750,,,,,
1_S7,10/05/2023,13:15:14.300,0.000,0.063,1.000,,,,,
1_S7,10/05/2023,13:15:14.400,-0.063,0.125,1.000,,,,,
1_S7,10/05/2023,13:15:14.500,-0.063,0.125,1.000,-5542.5,-225.0,-15985.5,,
1_S7,10/05/2023,13:15:14.600,-0.063,0.063,1.000,,,,,
1_S7,10/05/2023,13:15:14.700,0.000,0.125,0.938,,,,,
1_S7,10/05/2023,13:15:14.800,-0.188,0.063,1.000,,,,,
1_S7,10/05/2023,13:15:14.900,0.063,0.188,1.000,,,,,
1_S7,10/05/2023,13:15:15.000,0.063,0.125,1.000,3385.5,-7078.5,435.0,,
1_S7,10/05/2023,13:15:15.100,0.000,0.125,1.000,,,,,
1_S7,10/05/2023,13:15:15.200,0.000,0.125,0.938,,,,,
1_S7,10/05/2023,13:15:15.300,-0.063,0.125,1.000,,,,,
1_S7,10/05/2023,13:15:15.400,0.250,0.125,1.063,,,,,
1_S7,10/05/2023,13:15:15.500,0.063,0.125,1.000,4770.0,-5043.0,-7396.5,,
1_S7,10/05/2023,13:15:15.600,0.000,0.063,1.000,,,,,
1_S7,10/05/2023,13:15:15.700,0.063,0.125,1.000,,,,,
1_S7,10/05/2023,13:15:15.800,0.063,0.063,1.063,,,,,
1_S7,10/05/2023,13:15:15.900,0.000,0.063,1.000,,,,,
1_S7,10/05/2023,13:15:16.000,0.000,0.125,1.000,4819.5,-4698.0,-7644.0,,
1_S7,10/05/2023,13:15:16.100,0.063,0.063,1.063,,,,,
1_S7,10/05/2023,13:15:16.200,0.063,0.063,1.000,,,,,
1_S7,10/05/2023,13:15:16.300,0.125,0.063,1.063,,,,,
1_S7,10/05/2023,13:15:16.400,0.125,0.125,1.000,,,,,
1_S7,10/05/2023,13:15:16.500,0.000,0.063,1.063,-4537.5,-3585.0,-5185.5,,
1_S7,10/05/2023,13:15:16.600,0.000,0.125,1.000,,,,,
1_S7,10/05/2023,13:15:16.700,0.000,0.063,1.000,,,,,
1_S7,10/05/2023,13:15:16.800,0.000,0.125,1.000,,,,,
1_S7,10/05/2023,13:15:16.900,0.000,0.063,1.000,,,,,
1_S7,10/05/2023,13:15:17.000,0.000,0.063,1.000,-606.0,684.0,-2914.5,,
1_S7,10/05/2023,13:15:17.100,0.000,0.125,1.000,,,,,
1_S7,10/05/2023,13:15:17.200,0.000,0.125,1.000,,,,,
1_S7,10/05/2023,13:15:17.300,0.000,0.125,1.063,,,,,
1_S7,10/05/2023,13:15:17.400,0.000,0.125,1.000,,,,,
1_S7,10/05/2023,13:15:17.500,0.000,0.063,1.000,-640.5,685.5,-2931.0,,
1_S7,10/05/2023,13:15:17.600,0.000,0.125,1.000,,,,,
1_S7,10/05/2023,13:15:17.700,0.000,0.125,1.000,,,,,
1_S7,10/05/2023,13:15:17.800,0.000,0.125,1.000,,,,,
1_S7,10/05/2023,13:15:17.900,0.000,0.125,1.000,,,,,
1_S7,10/05/2023,13:15:18.000,0.000,0.125,1.000,-630.0,676.5,-2928.0,24,
1_S7,10/05/2023,13:15:18.100,0.000,0.119,1.000,,,,,
1_S7,10/05/2023,13:15:18.200,0.000,0.075,1.000,,,,,
1_S7,10/05/2023,13:15:18.300,0.000,0.106,1.000,,,,,
1_S7,10/05/2023,13:15:18.400,0.000,0.063,1.000,,,,,
1_S7,10/05/2023,13:15:18.500,0.000,0.094,1.032,-612.0,676.5,-2932.5,,
1_S7,10/05/2023,13:15:18.600,0.000,0.125,1.025,,,,,
1_S7,10/05/2023,13:15:18.700,0.000,0.125,1.044,,,,,
1_S7,10/05/2023,13:15:18.800,0.000,0.125,1.013,,,,,
1_S7,10/05/2023,13:15:18.900,0.000,0.063,1.000,,,,,
1_S7,10/05/2023,13:15:19.000,0.000,0.125,1.000,-634.5,675.0,-2916.0,,
1_S7,10/05/2023,13:15:19.100,0.000,0.125,1.000,,,,,
1_S7,10/05/2023,13:15:19.200,0.000,0.063,1.000,,,,,
1_S7,10/05/2023,13:15:19.300,0.000,0.125,1.000,,,,,
1_S7,10/05/2023,13:15:19.400,0.000,0.063,0.938,,,,,
1_S7,10/05/2023,13:15:19.500,0.000,0.125,1.000,-624.0,699.0,-2932.5,,
1_S7,10/05/2023,13:15:19.600,0.000,0.063,1.063,,,,,
1_S7,10/05/2023,13:15:19.700,0.000,0.125,1.000,,,,,
1_S7,10/05/2023,13:15:19.800,0.000,0.125,1.000,,,,,
1_S7,10/05/2023,13:15:19.900,0.000,0.063,1.000,,,,,
1_S7,10/05/2023,13:15:20.000,0.000,0.125,1.063,-642.0,669.0,-2928.0,,
1_S7,10/05/2023,13:15:20.100,0.000,0.063,1.000,,,,,
1_S7,10/05/2023,13:15:20.200,0.000,0.125,1.000,,,,,
1_S7,10/05/2023,13:15:20.300,0.000,0.125,1.000,,,,,
1_S7,10/05/2023,13:15:20.400,0.000,0.125,1.063,,,,,
1_S7,10/05/2023,13:15:20.500,0.000,0.125,1.000,-607.5,693.0,-2920.5,,
1_S7,10/05/2023,13:15:20.600,0.063,0.125,1.000,,,,,
1_S7,10/05/2023,13:15:20.700,0.000,0.063,1.000,,,,,
1_S7,10/05/2023,13:15:20.800,0.063,0.188,0.938,,,,,
1_S7,10/05/2023,13:15:20.900,0.000,0.375,1.125,,,,,
1_S7,10/05/2023,13:15:21.000,-0.250,0.438,0.875,-1195.5,592.5,-2686.5,,
1_S7,10/05/2023,13:15:21.100,-0.125,0.563,0.875,,,,,
1_S7,10/05/2023,13:15:21.200,-0.188,0.563,0.938,,,,,
1_S7,10/05/2023,13:15:21.300,-0.125,0.563,0.875,,,,,
1_S7,10/05/2023,13:15:21.400,-0.188,0.563,0.875,,,,,
1_S7,10/05/2023,13:15:21.500,-0.125,0.500,0.875,511.5,2593.5,112.5,,
1_S7,10/05/2023,13:15:21.600,-0.125,0.563,0.938,,,,,
1_S7,10/05/2023,13:15:21.700,-0.125,0.563,0.875,,,,,
1_S7,10/05/2023,13:15:21.800,-0.125,0.563,0.875,,,,,
1_S7,10/05/2023,13:15:21.900,-0.125,0.500,0.875,,,,,
1_S7,10/05/2023,13:15:22.000,-0.188,0.500,0.875,565.5,1813.5,-5719.5,,
1_S7,10/05/2023,13:15:22.100,-0.131,0.500,0.932,,,,,
1_S7,10/05/2023,13:15:22.200,-0.188,0.500,0.888,,,,,
1_S7,10/05/2023,13:15:22.300,-0.188,0.500,0.919,,,,,
1_S7,10/05/2023,13:15:22.400,-0.163,0.500,0.875,,,,,
1_S7,10/05/2023,13:15:22.500,-0.156,0.500,0.907,472.5,1819.5,-5695.5,,
1_S7,10/05/2023,13:15:22.600,-0.188,0.500,0.938,,,,,
1_S7,10/05/2023,13:15:22.700,-0.144,0.500,0.894,,,,,
1_S7,10/05/2023,13:15:22.800,-0.175,0.450,0.875,,,,,
1_S7,10/05/2023,13:15:22.900,-0.188,0.500,0.938,,,,,
1_S7,10/05/2023,13:15:23.000,-0.188,0.500,0.875,247.5,1911.0,-5586.0,24,
1_S7,10/05/2023,13:15:23.100,-0.188,0.500,0.875,,,,,
1_S7,10/05/2023,13:15:23.200,-0.188,0.438,0.875,,,,,
1_S7,10/05/2023,13:15:23.300,-0.125,0.438,0.938,,,,,
1_S7,10/05/2023,13:15:23.400,-0.188,0.500,0.938,,,,,
1_S7,10/05/2023,13:15:23.500,-0.188,0.500,0.938,393.0,3210.0,-2215.5,,
1_S7,10/05/2023,13:15:23.600,-0.188,0.500,0.875,,,,,
1_S7,10/05/2023,13:15:23.700,-0.188,0.500,0.875,,,,,
1_S7,10/05/2023,13:15:23.800,-0.188,0.563,0.875,,,,,
1_S7,10/05/2023,13:15:23.900,-0.188,0.500,0.938,,,,,
1_S7,10/05/2023,13:15:24.000,-0.125,0.563,0.938,-1489.5,267.0,-1105.5,,
1_S7,10/05/2023,13:15:24.100,-0.188,0.563,0.875,,,,,
1_S7,10/05/2023,13:15:24.200,-0.188,0.500,0.875,,,,,
1_S7,10/05/2023,13:15:24.300,-0.188,0.500,0.938,,,,,
1_S7,10/05/2023,13:15:24.400,-0.125,0.500,0.875,,,,,
1_S7,10/05/2023,13:15:24.500,-0.125,0.500,0.875,-1477.5,279.0,-1125.0,,
1_S7,10/05/2023,13:15:24.600,-0.188,0.563,0.938,,,,,
1_S7,10/05/2023,13:15:24.700,-0.125,0.500,0.875,,,,,
1_S7,10/05/2023,13:15:24.800,-0.125,0.500,0.875,,,,,
1_S7,10/05/2023,13:15:24.900,-0.188,0.500,0.938,,,,,
1_S7,10/05/2023,13:15:24.000,0.000,0.000,0.000,,,,24,Power off command received.
