TagID,Date,Time,accX,accY,accZ,magX,magY,magZ,Temp. (?C),Metadata
1_S9,10/05/2023,13:53:47.000,-0.250,-0.875,-0.438,-204.0,-202.5,634.5,23,
1_S9,10/05/2023,13:53:47.100,-0.250,-0.875,-0.438,,,,,
1_S9,10/05/2023,13:53:47.200,-0.375,-0.750,-0.563,,,,,
1_S9,10/05/2023,13:53:47.300,-0.313,-0.813,-0.500,,,,,
1_S9,10/05/2023,13:53:47.400,-0.250,-0.688,-0.625,,,,,
1_S9,10/05/2023,13:53:47.500,-0.250,-0.688,-0.625,-177.0,-265.5,759.0,,
1_S9,10/05/2023,13:53:47.600,-0.313,-0.688,-0.750,,,,,
1_S9,10/05/2023,13:53:47.700,-0.188,-0.625,-0.813,,,,,
1_S9,10/05/2023,13:53:47.800,-0.188,-0.563,-0.813,,,,,
1_S9,10/05/2023,13:53:47.900,-0.125,-0.375,-0.875,,,,,
1_S9,10/05/2023,13:53:48.000,-0.125,-0.375,-0.875,-264.0,-444.0,834.0,,
1_S9,10/05/2023,13:53:48.100,-0.063,-0.313,-1.000,,,,,
1_S9,10/05/2023,13:53:48.200,-0.063,-0.125,-1.000,,,,,
1_S9,10/05/2023,13:53:48.300,-0.063,0.000,-1.063,,,,,
1_S9,10/05/2023,13:53:48.400,-0.063,0.125,-1.000,,,,,
1_S9,10/05/2023,13:53:48.500,-0.063,0.250,-0.938,-307.5,-883.5,928.5,,
1_S9,10/05/2023,13:53:48.600,0.000,0.250,-1.000,,,,,
1_S9,10/05/2023,13:53:48.700,0.000,0.375,-0.875,,,,,
1_S9,10/05/2023,13:53:48.800,0.000,0.563,-0.875,,,,,
1_S9,10/05/2023,13:53:48.900,0.000,0.688,-0.875,,,,,
1_S9,10/05/2023,13:53:49.000,-0.188,0.750,-0.688,-390.0,-1623.0,889.5,,
1_S9,10/05/2023,13:53:49.100,-0.188,0.813,-0.500,,,,,
1_S9,10/05/2023,13:53:49.200,-0.063,1.063,-0.313,,,,,
1_S9,10/05/2023,13:53:49.300,-0.125,0.938,-0.375,,,,,
1_S9,10/05/2023,13:53:49.400,-0.125,1.063,-0.375,,,,,
1_S9,10/05/2023,13:53:49.500,-0.125,1.063,-0.375,-514.5,-2538.0,588.0,,
1_S9,10/05/2023,13:53:49.600,-0.125,1.063,-0.313,,,,,
1_S9,10/05/2023,13:53:49.700,0.000,1.063,-0.250,,,,,
1_S9,10/05/2023,13:53:49.800,0.000,1.000,-0.250,,,,,
1_S9,10/05/2023,13:53:49.900,0.000,1.063,-0.188,,,,,
1_S9,10/05/2023,13:53:50.000,0.063,1.063,-0.125,-517.5,-2602.5,438.0,,
1_S9,10/05/2023,13:53:50.100,0.000,1.063,0.000,,,,,
1_S9,10/05/2023,13:53:50.200,0.063,1.000,0.000,,,,,
1_S9,10/05/2023,13:53:50.300,0.063,1.063,0.063,,,,,
1_S9,10/05/2023,13:53:50.400,0.063,1.063,0.063,,,,,
1_S9,10/05/2023,13:53:50.500,0.063,1.063,0.125,-520.5,-2550.0,345.0,,
1_S9,10/05/2023,13:53:50.600,0.188,1.063,0.125,,,,,
1_S9,10/05/2023,13:53:50.700,0.188,1.000,0.250,,,,,
1_S9,10/05/2023,13:53:50.800,0.250,1.000,0.313,,,,,
1_S9,10/05/2023,13:53:50.900,0.188,1.000,0.313,,,,,
1_S9,10/05/2023,13:53:51.000,0.250,0.938,0.313,-580.5,-2490.0,274.5,,
1_S9,10/05/2023,13:53:51.100,0.200,1.000,0.388,,,,,
1_S9,10/05/2023,13:53:51.200,0.288,0.938,0.513,,,,,
1_S9,10/05/2023,13:53:51.300,0.169,0.669,0.619,,,,,
1_S9,10/05/2023,13:53:51.400,0.150,0.600,0.800,,,,,
1_S9,10/05/2023,13:53:51.500,0.188,0.500,0.875,-529.5,-2281.5,183.0,,
1_S9,10/05/2023,13:53:51.600,0.225,0.363,0.875,,,,,
1_S9,10/05/2023,13:53:51.700,0.206,0.225,0.963,,,,,
1_S9,10/05/2023,13:53:51.800,0.238,0.188,1.000,,,,,
1_S9,10/05/2023,13:53:51.900,0.438,0.188,1.000,,,,,
1_S9,10/05/2023,13:53:52.000,0.188,-0.063,0.875,-774.0,-1675.5,115.5,23,
1_S9,10/05/2023,13:53:52.100,0.125,-0.313,0.938,,,,,
1_S9,10/05/2023,13:53:52.200,0.125,-0.438,0.875,,,,,
1_S9,10/05/2023,13:53:52.300,0.125,-0.500,0.813,,,,,
1_S9,10/05/2023,13:53:52.400,0.125,-0.563,0.813,,,,,
1_S9,10/05/2023,13:53:52.500,0.063,-0.625,0.750,-373.5,-330.0,276.0,,
1_S9,10/05/2023,13:53:52.600,0.125,-1.500,0.813,,,,,
1_S9,10/05/2023,13:53:52.700,0.125,-0.188,0.813,,,,,
1_S9,10/05/2023,13:53:52.800,0.125,-0.688,0.688,,,,,
1_S9,10/05/2023,13:53:52.900,0.125,-0.750,0.625,,,,,
1_S9,10/05/2023,13:53:53.000,0.063,-0.688,0.688,-292.5,-169.5,385.5,,
1_S9,10/05/2023,13:53:53.100,0.063,-0.750,0.688,,,,,
1_S9,10/05/2023,13:53:53.200,0.125,-0.813,0.500,,,,,
1_S9,10/05/2023,13:53:53.300,0.125,-0.875,0.375,,,,,
1_S9,10/05/2023,13:53:53.400,0.063,-0.938,0.250,,,,,
1_S9,10/05/2023,13:53:53.500,0.063,-0.938,0.188,-300.0,-174.0,571.5,,
1_S9,10/05/2023,13:53:53.600,0.063,-0.938,0.063,,,,,
1_S9,10/05/2023,13:53:53.700,0.063,-1.000,-0.125,,,,,
1_S9,10/05/2023,13:53:53.800,0.125,-0.938,-0.188,,,,,
1_S9,10/05/2023,13:53:53.900,0.063,-1.000,-0.250,,,,,
1_S9,10/05/2023,13:53:54.000,-0.063,-0.813,-0.375,-291.0,-277.5,774.0,,
1_S9,10/05/2023,13:53:54.100,0.125,-0.875,-0.375,,,,,
1_S9,10/05/2023,13:53:54.200,0.188,-0.875,-0.375,,,,,
1_S9,10/05/2023,13:53:54.300,0.188,-0.813,-0.438,,,,,
1_S9,10/05/2023,13:53:54.400,0.188,-0.813,-0.625,,,,,
1_S9,10/05/2023,13:53:54.500,0.125,-0.750,-0.563,-340.5,-459.0,811.5,,
1_S9,10/05/2023,13:53:54.600,0.188,-0.813,-0.563,,,,,
1_S9,10/05/2023,13:53:54.700,0.188,-0.688,-0.688,,,,,
1_S9,10/05/2023,13:53:54.800,0.250,-0.688,-0.625,,,,,
1_S9,10/05/2023,13:53:54.900,0.125,-0.625,-0.750,,,,,
1_S9,10/05/2023,13:53:55.000,0.188,-0.625,-0.813,-322.5,-574.5,852.0,,
1_S9,10/05/2023,13:53:55.100,0.250,-0.500,-0.875,,,,,
1_S9,10/05/2023,13:53:55.200,0.188,-0.438,-0.938,,,,,
1_S9,10/05/2023,13:53:55.300,0.188,-0.375,-0.938,,,,,
1_S9,10/05/2023,13:53:55.400,0.125,-0.313,-0.875,,,,,
1_S9,10/05/2023,13:53:55.500,0.125,-0.188,-1.000,-388.5,-943.5,885.0,,
1_S9,10/05/2023,13:53:55.600,0.063,-0.188,-1.000,,,,,
1_S9,10/05/2023,13:53:55.700,0.063,-0.125,-1.000,,,,,
1_S9,10/05/2023,13:53:55.800,0.125,-0.063,-1.000,,,,,
1_S9,10/05/2023,13:53:55.900,0.063,0.063,-1.000,,,,,
1_S9,10/05/2023,13:53:56.000,-0.063,0.063,-1.063,-264.0,-1219.5,916.5,,
1_S9,10/05/2023,13:53:56.100,-0.063,0.131,-0.994,,,,,
1_S9,10/05/2023,13:53:56.200,-0.075,0.213,-0.950,,,,,
1_S9,10/05/2023,13:53:56.300,-0.144,0.331,-0.982,,,,,
1_S9,10/05/2023,13:53:56.400,-0.188,0.400,-0.938,,,,,
1_S9,10/05/2023,13:53:56.500,-0.188,0.469,-0.907,-154.5,-1669.5,870.0,,
1_S9,10/05/2023,13:53:56.600,-0.225,0.538,-0.875,,,,,
1_S9,10/05/2023,13:53:56.700,-0.206,0.650,-0.832,,,,,
1_S9,10/05/2023,13:53:56.800,-0.188,0.688,-0.813,,,,,
1_S9,10/05/2023,13:53:56.900,-0.125,0.750,-0.750,,,,,
1_S9,10/05/2023,13:53:57.000,-0.063,0.875,-0.688,-211.5,-1710.0,777.0,23,
1_S9,10/05/2023,13:53:57.100,-0.063,0.875,-0.625,,,,,
1_S9,10/05/2023,13:53:57.200,-0.063,0.938,-0.500,,,,,
1_S9,10/05/2023,13:53:57.300,-0.063,1.000,-0.500,,,,,
1_S9,10/05/2023,13:53:57.400,-0.125,1.063,-0.500,,,,,
1_S9,10/05/2023,13:53:57.500,-0.063,0.938,-0.438,-205.5,-1806.0,562.5,,
1_S9,10/05/2023,13:53:57.600,0.000,0.938,-0.313,,,,,
1_S9,10/05/2023,13:53:57.700,-0.063,1.063,-0.313,,,,,
1_S9,10/05/2023,13:53:57.800,0.000,1.063,-0.188,,,,,
1_S9,10/05/2023,13:53:57.900,0.063,1.063,-0.125,,,,,
1_S9,10/05/2023,13:53:58.000,0.063,1.063,0.063,-499.5,-2623.5,240.0,,
1_S9,10/05/2023,13:53:58.100,0.125,1.063,0.125,,,,,
1_S9,10/05/2023,13:53:58.200,0.063,1.063,0.188,,,,,
1_S9,10/05/2023,13:53:58.300,0.063,1.063,0.250,,,,,
1_S9,10/05/2023,13:53:58.400,0.063,1.000,0.250,,,,,
1_S9,10/05/2023,13:53:58.500,0.063,1.000,0.250,-400.5,-2566.5,100.5,,
1_S9,10/05/2023,13:53:58.600,0.125,1.000,0.313,,,,,
1_S9,10/05/2023,13:53:58.700,0.125,1.000,0.438,,,,,
1_S9,10/05/2023,13:53:58.800,0.000,1.000,0.438,,,,,
1_S9,10/05/2023,13:53:58.900,0.063,1.000,0.500,,,,,
1_S9,10/05/2023,13:53:59.000,0.063,0.813,0.563,-387.0,-2475.0,51.0,,
1_S9,10/05/2023,13:53:59.100,0.125,0.813,0.688,,,,,
1_S9,10/05/2023,13:53:59.200,0.063,0.813,0.688,,,,,
1_S9,10/05/2023,13:53:59.300,0.000,0.688,0.750,,,,,
1_S9,10/05/2023,13:53:59.400,-0.063,0.625,0.875,,,,,
1_S9,10/05/2023,13:53:59.500,-0.063,0.563,0.875,-363.0,-2299.5,39.0,,
1_S9,10/05/2023,13:53:59.600,0.125,0.688,0.875,,,,,
1_S9,10/05/2023,13:53:59.700,-0.063,0.438,0.938,,,,,
1_S9,10/05/2023,13:53:59.800,-0.125,0.313,0.938,,,,,
1_S9,10/05/2023,13:53:59.900,-0.063,0.313,1.000,,,,,
1_S9,10/05/2023,13:54:00.000,0.000,0.188,1.000,-411.0,-2179.5,67.5,,
1_S9,10/05/2023,13:54:00.100,0.000,0.188,1.063,,,,,
1_S9,10/05/2023,13:54:00.200,0.000,0.063,1.000,,,,,
1_S9,10/05/2023,13:54:00.300,-0.063,0.000,1.000,,,,,
1_S9,10/05/2023,13:54:00.400,0.000,0.063,1.000,,,,,
1_S9,10/05/2023,13:54:00.500,0.000,-0.125,1.063,-360.0,-2059.5,136.5,,
1_S9,10/05/2023,13:54:00.600,-0.063,-0.125,1.000,,,,,
1_S9,10/05/2023,13:54:00.700,-0.063,-0.250,0.938,,,,,
1_S9,10/05/2023,13:54:00.800,-0.063,-0.313,1.000,,,,,
1_S9,10/05/2023,13:54:00.900,-0.063,-0.313,0.938,,,,,
1_S9,10/05/2023,13:54:01.000,0.000,-0.375,0.938,-360.0,-1957.5,231.0,,
1_S9,10/05/2023,13:54:01.100,-0.063,-0.563,0.807,,,,,
1_S9,10/05/2023,13:54:01.200,0.000,-0.625,0.763,,,,,
1_S9,10/05/2023,13:54:01.300,0.138,-0.838,0.775,,,,,
1_S9,10/05/2023,13:54:01.400,-0.100,-0.750,0.688,,,,,
1_S9,10/05/2023,13:54:01.500,-0.031,-0.782,0.625,-465.0,-1794.0,421.5,,
1_S9,10/05/2023,13:54:01.600,-0.038,-0.850,0.525,,,,,
1_S9,10/05/2023,13:54:01.700,-0.063,-0.875,0.456,,,,,
1_S9,10/05/2023,13:54:01.800,-0.013,-0.675,0.188,,,,,
1_S9,10/05/2023,13:54:01.900,2.001,-1.813,0.188,,,,,
1_S9,10/05/2023,13:54:02.000,0.063,-1.000,0.250,-75.0,-190.5,708.0,23,
1_S9,10/05/2023,13:54:02.100,0.063,-0.938,0.125,,,,,
1_S9,10/05/2023,13:54:02.200,0.000,-0.875,0.000,,,,,
1_S9,10/05/2023,13:54:02.300,0.063,-1.000,-0.188,,,,,
1_S9,10/05/2023,13:54:02.400,0.188,-1.000,-0.125,,,,,
1_S9,10/05/2023,13:54:02.500,0.063,-0.938,-0.250,-81.0,-261.0,817.5,,
1_S9,10/05/2023,13:54:02.600,0.063,-0.938,-0.313,,,,,
1_S9,10/05/2023,13:54:02.700,0.188,-0.875,-0.375,,,,,
1_S9,10/05/2023,13:54:02.800,0.188,-0.875,-0.500,,,,,
1_S9,10/05/2023,13:54:02.900,0.188,-0.813,-0.500,,,,,
1_S9,10/05/2023,13:54:03.000,0.063,-0.813,-0.563,-102.0,-421.5,880.5,,
1_S9,10/05/2023,13:54:03.100,0.125,-0.688,-0.750,,,,,
1_S9,10/05/2023,13:54:03.200,0.063,-0.563,-0.813,,,,,
1_S9,10/05/2023,13:54:03.300,0.063,-0.500,-0.813,,,,,
1_S9,10/05/2023,13:54:03.400,0.063,-0.438,-0.875,,,,,
1_S9,10/05/2023,13:54:03.500,0.000,-0.375,-0.938,-69.0,-690.0,939.0,,
1_S9,10/05/2023,13:54:03.600,0.000,-0.375,-0.875,,,,,
1_S9,10/05/2023,13:54:03.700,0.000,-0.313,-0.938,,,,,
1_S9,10/05/2023,13:54:03.800,0.000,-0.313,-0.938,,,,,
1_S9,10/05/2023,13:54:03.900,0.000,-0.250,-1.000,,,,,
1_S9,10/05/2023,13:54:04.000,-0.063,-0.188,-1.000,-52.5,-840.0,891.0,,
1_S9,10/05/2023,13:54:04.100,-0.063,-0.125,-0.938,,,,,
1_S9,10/05/2023,13:54:04.200,-0.063,-0.063,-1.063,,,,,
1_S9,10/05/2023,13:54:04.300,-0.063,-0.125,-1.063,,,,,
1_S9,10/05/2023,13:54:04.400,0.000,-0.063,-1.000,,,,,
1_S9,10/05/2023,13:54:04.500,0.000,0.063,-1.063,-22.5,-991.5,885.0,,
1_S9,10/05/2023,13:54:04.600,-0.063,0.063,-1.000,,,,,
1_S9,10/05/2023,13:54:04.700,-0.063,0.125,-1.000,,,,,
1_S9,10/05/2023,13:54:04.800,-0.063,0.188,-1.000,,,,,
1_S9,10/05/2023,13:54:04.900,-0.063,0.250,-1.000,,,,,
1_S9,10/05/2023,13:54:05.000,-0.063,0.250,-0.938,-1.5,-1222.5,840.0,,
1_S9,10/05/2023,13:54:05.100,-0.063,0.319,-1.000,,,,,
1_S9,10/05/2023,13:54:05.200,-0.075,0.388,-0.988,,,,,
1_S9,10/05/2023,13:54:05.300,-0.125,0.456,-0.938,,,,,
1_S9,10/05/2023,13:54:05.400,-0.100,0.500,-0.913,,,,,
1_S9,10/05/2023,13:54:05.500,-0.063,0.531,-0.875,-15.0,-1560.0,787.5,,
1_S9,10/05/2023,13:54:05.600,-0.063,0.600,-0.838,,,,,
1_S9,10/05/2023,13:54:05.700,-0.063,0.669,-0.813,,,,,
1_S9,10/05/2023,13:54:05.800,-0.113,0.688,-0.813,,,,,
1_S9,10/05/2023,13:54:05.900,-0.063,0.750,-0.750,,,,,
1_S9,10/05/2023,13:54:06.000,-0.125,0.875,-0.688,-51.0,-1779.0,712.5,,
1_S9,10/05/2023,13:54:06.100,-0.063,0.938,-0.500,,,,,
1_S9,10/05/2023,13:54:06.200,-0.063,0.938,-0.438,,,,,
1_S9,10/05/2023,13:54:06.300,-0.063,0.938,-0.375,,,,,
1_S9,10/05/2023,13:54:06.400,-0.063,0.938,-0.313,,,,,
1_S9,10/05/2023,13:54:06.500,-0.063,1.000,-0.313,-300.0,-2632.5,400.5,,
1_S9,10/05/2023,13:54:06.600,0.000,1.063,-0.125,,,,,
1_S9,10/05/2023,13:54:06.700,-0.063,1.063,-0.188,,,,,
1_S9,10/05/2023,13:54:06.800,-0.063,1.063,-0.125,,,,,
1_S9,10/05/2023,13:54:06.900,-0.063,1.063,-0.125,,,,,
1_S9,10/05/2023,13:54:07.000,-0.063,1.000,-0.125,-309.0,-2613.0,241.5,23,
1_S9,10/05/2023,13:54:07.100,-0.063,1.063,0.063,,,,,
1_S9,10/05/2023,13:54:07.200,0.000,1.000,0.125,,,,,
1_S9,10/05/2023,13:54:07.300,0.000,1.000,0.250,,,,,
1_S9,10/05/2023,13:54:07.400,-0.063,1.000,0.313,,,,,
1_S9,10/05/2023,13:54:07.500,-0.063,1.063,0.188,-300.0,-2589.0,94.5,,
1_S9,10/05/2023,13:54:07.600,0.000,0.938,0.438,,,,,
1_S9,10/05/2023,13:54:07.700,0.063,0.938,0.500,,,,,
1_S9,10/05/2023,13:54:07.800,0.063,0.875,0.500,,,,,
1_S9,10/05/2023,13:54:07.900,0.063,0.875,0.563,,,,,
1_S9,10/05/2023,13:54:08.000,0.063,0.750,0.688,-306.0,-2457.0,21.0,,
1_S9,10/05/2023,13:54:08.100,0.125,0.750,0.688,,,,,
1_S9,10/05/2023,13:54:08.200,0.125,0.625,0.750,,,,,
1_S9,10/05/2023,13:54:08.300,0.125,0.625,0.813,,,,,
1_S9,10/05/2023,13:54:08.400,0.063,0.625,0.813,,,,,
1_S9,10/05/2023,13:54:08.500,0.125,0.563,0.875,-270.0,-2325.0,34.5,,
1_S9,10/05/2023,13:54:08.600,0.000,0.563,0.875,,,,,
1_S9,10/05/2023,13:54:08.700,0.063,0.438,0.875,,,,,
1_S9,10/05/2023,13:54:08.800,0.063,0.500,1.000,,,,,
1_S9,10/05/2023,13:54:08.900,0.063,0.375,0.938,,,,,
1_S9,10/05/2023,13:54:09.000,0.125,0.375,0.938,-265.5,-2250.0,60.0,,
1_S9,10/05/2023,13:54:09.100,0.000,0.375,0.938,,,,,
1_S9,10/05/2023,13:54:09.200,0.063,0.375,1.000,,,,,
1_S9,10/05/2023,13:54:09.300,0.063,0.125,1.063,,,,,
1_S9,10/05/2023,13:54:09.400,0.000,0.063,0.938,,,,,
1_S9,10/05/2023,13:54:09.500,0.000,0.063,1.000,-256.5,-2149.5,78.0,,
1_S9,10/05/2023,13:54:09.600,0.000,-0.063,1.000,,,,,
1_S9,10/05/2023,13:54:09.700,-0.063,-0.125,1.063,,,,,
1_S9,10/05/2023,13:54:09.800,-0.063,-0.125,1.000,,,,,
1_S9,10/05/2023,13:54:09.900,0.000,-0.188,1.000,,,,,
1_S9,10/05/2023,13:54:10.000,0.000,-0.250,0.938,-253.5,-2023.5,177.0,,
1_S9,10/05/2023,13:54:10.100,0.119,-0.375,0.988,,,,,
1_S9,10/05/2023,13:54:10.200,0.075,-0.388,0.875,,,,,
1_S9,10/05/2023,13:54:10.300,0.125,-0.475,0.857,,,,,
1_S9,10/05/2023,13:54:10.400,0.100,-0.588,0.788,,,,,
1_S9,10/05/2023,13:54:10.500,0.063,-0.625,0.750,-289.5,-1863.0,366.0,,
1_S9,10/05/2023,13:54:10.600,0.063,-0.625,0.750,,,,,
1_S9,10/05/2023,13:54:10.700,0.019,-0.932,0.750,,,,,
1_S9,10/05/2023,13:54:10.800,0.050,-0.813,0.650,,,,,
1_S9,10/05/2023,13:54:10.900,0.125,-0.813,0.625,,,,,
1_S9,10/05/2023,13:54:11.000,0.188,-0.813,0.625,-138.0,-199.5,366.0,,
1_S9,10/05/2023,13:54:11.100,0.125,-0.813,0.563,,,,,
1_S9,10/05/2023,13:54:11.200,0.125,-0.938,0.625,,,,,
1_S9,10/05/2023,13:54:11.300,0.063,-0.875,0.250,,,,,
1_S9,10/05/2023,13:54:11.400,0.063,-1.000,0.313,,,,,
1_S9,10/05/2023,13:54:11.500,0.063,-0.938,0.188,45.0,-139.5,598.5,,
1_S9,10/05/2023,13:54:11.600,0.000,-0.938,0.125,,,,,
1_S9,10/05/2023,13:54:11.700,0.000,-1.000,-0.063,,,,,
1_S9,10/05/2023,13:54:11.800,-0.063,-1.000,-0.125,,,,,
1_S9,10/05/2023,13:54:11.900,-0.063,-1.000,-0.125,,,,,
1_S9,10/05/2023,13:54:12.000,-0.063,-1.000,-0.188,76.5,-214.5,750.0,23,
1_S9,10/05/2023,13:54:12.100,0.000,-1.000,-0.125,,,,,
1_S9,10/05/2023,13:54:12.200,0.000,-1.000,-0.313,,,,,
1_S9,10/05/2023,13:54:12.300,0.000,-0.938,-0.250,,,,,
1_S9,10/05/2023,13:54:12.400,0.000,-0.938,-0.313,,,,,
1_S9,10/05/2023,13:54:12.500,0.000,-0.875,-0.375,57.0,-259.5,828.0,,
1_S9,10/05/2023,13:54:12.600,0.063,-0.938,-0.313,,,,,
1_S9,10/05/2023,13:54:12.700,0.000,-0.875,-0.438,,,,,
1_S9,10/05/2023,13:54:12.800,0.000,-0.875,-0.500,,,,,
1_S9,10/05/2023,13:54:12.900,0.000,-0.875,-0.625,,,,,
1_S9,10/05/2023,13:54:13.000,0.000,-0.750,-0.688,58.5,-411.0,838.5,,
1_S9,10/05/2023,13:54:13.100,0.000,-0.688,-0.688,,,,,
1_S9,10/05/2023,13:54:13.200,-0.063,-0.750,-0.688,,,,,
1_S9,10/05/2023,13:54:13.300,-0.063,-0.625,-0.750,,,,,
1_S9,10/05/2023,13:54:13.400,-0.063,-0.625,-0.875,,,,,
1_S9,10/05/2023,13:54:13.500,0.000,-0.563,-0.813,67.5,-553.5,892.5,,
1_S9,10/05/2023,13:54:13.600,-0.063,-0.500,-0.813,,,,,
1_S9,10/05/2023,13:54:13.700,0.063,-0.438,-0.938,,,,,
1_S9,10/05/2023,13:54:13.800,0.063,-0.375,-0.875,,,,,
1_S9,10/05/2023,13:54:13.900,0.000,-0.438,-0.938,,,,,
1_S9,10/05/2023,13:54:14.000,0.063,-0.375,-0.938,24.0,-721.5,916.5,,
1_S9,10/05/2023,13:54:14.100,0.000,-0.250,-0.938,,,,,
1_S9,10/05/2023,13:54:14.200,0.063,-0.313,-0.875,,,,,
1_S9,10/05/2023,13:54:14.300,0.000,-0.250,-1.000,,,,,
1_S9,10/05/2023,13:54:14.400,0.063,-0.313,-0.938,,,,,
1_S9,10/05/2023,13:54:14.500,0.000,-0.125,-0.938,16.5,-849.0,913.5,,
1_S9,10/05/2023,13:54:14.600,0.000,-0.125,-1.000,,,,,
1_S9,10/05/2023,13:54:14.700,0.000,-0.125,-0.938,,,,,
1_S9,10/05/2023,13:54:14.800,0.000,-0.063,-1.000,,,,,
1_S9,10/05/2023,13:54:14.900,0.063,0.063,-1.000,,,,,
1_S9,10/05/2023,13:54:15.000,0.063,0.125,-1.063,24.0,-1003.5,889.5,,
1_S9,10/05/2023,13:54:15.100,0.019,0.200,-1.000,,,,,
1_S9,10/05/2023,13:54:15.200,0.163,0.313,-1.000,,,,,
1_S9,10/05/2023,13:54:15.300,0.044,0.331,-0.982,,,,,
1_S9,10/05/2023,13:54:15.400,0.000,0.425,-0.938,,,,,
1_S9,10/05/2023,13:54:15.500,0.000,0.531,-0.907,36.0,-1419.0,847.5,,
1_S9,10/05/2023,13:54:15.600,0.000,0.638,-0.875,,,,,
1_S9,10/05/2023,13:54:15.700,0.000,0.688,-0.832,,,,,
1_S9,10/05/2023,13:54:15.800,0.000,0.688,-0.763,,,,,
1_S9,10/05/2023,13:54:15.900,0.063,0.813,-0.750,,,,,
1_S9,10/05/2023,13:54:16.000,0.000,0.750,-0.750,-127.5,-2373.0,702.0,,
1_S9,10/05/2023,13:54:16.100,0.125,0.813,-0.688,,,,,
1_S9,10/05/2023,13:54:16.200,0.125,0.938,-0.625,,,,,
1_S9,10/05/2023,13:54:16.300,0.125,0.938,-0.375,,,,,
1_S9,10/05/2023,13:54:16.400,0.125,1.000,-0.438,,,,,
1_S9,10/05/2023,13:54:16.500,0.125,1.000,-0.375,-222.0,-2611.5,498.0,,
1_S9,10/05/2023,13:54:16.600,0.125,1.000,-0.313,,,,,
1_S9,10/05/2023,13:54:16.700,0.188,1.000,-0.250,,,,,
1_S9,10/05/2023,13:54:16.800,0.125,1.000,-0.188,,,,,
1_S9,10/05/2023,13:54:16.900,0.188,1.063,-0.125,,,,,
1_S9,10/05/2023,13:54:17.000,0.188,0.938,-0.063,-249.0,-2674.5,319.5,23,
1_S9,10/05/2023,13:54:17.100,0.188,1.000,0.063,,,,,
1_S9,10/05/2023,13:54:17.200,0.188,1.000,0.125,,,,,
1_S9,10/05/2023,13:54:17.300,0.125,1.000,0.125,,,,,
1_S9,10/05/2023,13:54:17.400,0.188,1.063,0.188,,,,,
1_S9,10/05/2023,13:54:17.500,0.188,1.000,0.188,-247.5,-2641.5,202.5,,
1_S9,10/05/2023,13:54:17.600,0.250,1.000,0.188,,,,,
1_S9,10/05/2023,13:54:17.700,0.125,1.063,0.125,,,,,
1_S9,10/05/2023,13:54:17.800,0.250,0.938,0.188,,,,,
1_S9,10/05/2023,13:54:17.900,0.188,1.000,0.250,,,,,
1_S9,10/05/2023,13:54:18.000,0.188,1.000,0.375,-288.0,-2613.0,100.5,,
1_S9,10/05/2023,13:54:18.100,0.188,1.000,0.313,,,,,
1_S9,10/05/2023,13:54:18.200,0.250,1.063,0.375,,,,,
1_S9,10/05/2023,13:54:18.300,0.188,1.000,0.313,,,,,
1_S9,10/05/2023,13:54:18.400,0.188,0.938,0.438,,,,,
1_S9,10/05/2023,13:54:18.500,0.188,0.875,0.563,-307.5,-2554.5,43.5,,
1_S9,10/05/2023,13:54:18.600,0.250,0.813,0.625,,,,,
1_S9,10/05/2023,13:54:18.700,0.375,0.625,0.750,,,,,
1_S9,10/05/2023,13:54:18.800,0.375,0.500,0.750,,,,,
1_S9,10/05/2023,13:54:18.900,0.375,0.563,0.875,,,,,
1_S9,10/05/2023,13:54:19.000,0.313,0.313,0.875,-352.5,-2335.5,10.5,,
1_S9,10/05/2023,13:54:19.100,0.375,0.250,0.938,,,,,
1_S9,10/05/2023,13:54:19.200,0.375,0.188,0.938,,,,,
1_S9,10/05/2023,13:54:19.300,0.313,0.125,0.875,,,,,
1_S9,10/05/2023,13:54:19.400,0.438,0.125,0.938,,,,,
1_S9,10/05/2023,13:54:19.500,0.438,0.125,0.813,-387.0,-2184.0,21.0,,
1_S9,10/05/2023,13:54:19.600,0.313,0.125,0.875,,,,,
1_S9,10/05/2023,13:54:19.700,0.313,0.063,0.938,,,,,
1_S9,10/05/2023,13:54:19.800,0.313,0.000,0.938,,,,,
1_S9,10/05/2023,13:54:19.900,0.313,-0.063,0.938,,,,,
1_S9,10/05/2023,13:54:20.000,0.313,-0.125,0.938,-379.5,-2085.0,46.5,,
1_S9,10/05/2023,13:54:20.100,0.363,-0.200,0.875,,,,,
1_S9,10/05/2023,13:54:20.200,0.263,-0.325,0.888,,,,,
1_S9,10/05/2023,13:54:20.300,0.275,-0.431,0.900,,,,,
1_S9,10/05/2023,13:54:20.400,0.213,-0.563,0.813,,,,,
1_S9,10/05/2023,13:54:20.500,0.219,-0.563,0.813,-312.0,-1974.0,145.5,,
1_S9,10/05/2023,13:54:20.600,0.188,-0.638,0.738,,,,,
1_S9,10/05/2023,13:54:20.700,0.100,-0.731,0.600,,,,,
1_S9,10/05/2023,13:54:20.800,0.063,-0.800,0.563,,,,,
1_S9,10/05/2023,13:54:20.900,0.125,-0.938,0.438,,,,,
1_S9,10/05/2023,13:54:21.000,0.000,-0.938,0.313,-238.5,-1927.5,304.5,,
1_S9,10/05/2023,13:54:21.100,0.313,-1.188,0.438,,,,,
1_S9,10/05/2023,13:54:21.200,0.125,-1.250,0.375,,,,,
1_S9,10/05/2023,13:54:21.300,0.063,-1.000,0.125,,,,,
1_S9,10/05/2023,13:54:21.400,-0.063,-1.000,0.000,,,,,
1_S9,10/05/2023,13:54:21.500,0.000,-1.000,-0.125,123.0,-241.5,495.0,,
1_S9,10/05/2023,13:54:21.600,-0.063,-1.000,-0.125,,,,,
1_S9,10/05/2023,13:54:21.700,0.063,-1.000,-0.125,,,,,
1_S9,10/05/2023,13:54:21.800,0.000,-1.000,-0.125,,,,,
1_S9,10/05/2023,13:54:21.900,0.000,-0.938,-0.188,,,,,
1_S9,10/05/2023,13:54:22.000,0.063,-0.938,-0.250,126.0,-238.5,582.0,24,
1_S9,10/05/2023,13:54:22.100,0.063,-0.938,-0.250,,,,,
1_S9,10/05/2023,13:54:22.200,0.063,-0.938,-0.250,,,,,
1_S9,10/05/2023,13:54:22.300,0.063,-0.938,-0.313,,,,,
1_S9,10/05/2023,13:54:22.400,0.063,-0.938,-0.375,,,,,
1_S9,10/05/2023,13:54:22.500,0.000,-0.875,-0.375,117.0,-300.0,697.5,,
1_S9,10/05/2023,13:54:22.600,0.000,-0.938,-0.375,,,,,
1_S9,10/05/2023,13:54:22.700,0.063,-0.938,-0.438,,,,,
1_S9,10/05/2023,13:54:22.800,0.063,-0.875,-0.500,,,,,
1_S9,10/05/2023,13:54:22.900,0.000,-0.813,-0.625,,,,,
1_S9,10/05/2023,13:54:23.000,0.063,-0.750,-0.688,58.5,-417.0,711.0,,
1_S9,10/05/2023,13:54:23.100,0.063,-0.625,-0.688,,,,,
1_S9,10/05/2023,13:54:23.200,0.063,-0.625,-0.813,,,,,
1_S9,10/05/2023,13:54:23.300,0.063,-0.563,-0.875,,,,,
1_S9,10/05/2023,13:54:23.400,0.000,-0.500,-0.875,,,,,
1_S9,10/05/2023,13:54:23.500,0.000,-0.375,-0.938,150.0,-475.5,832.5,,
1_S9,10/05/2023,13:54:23.600,0.063,-0.188,-0.938,,,,,
1_S9,10/05/2023,13:54:23.700,0.000,-0.125,-1.000,,,,,
1_S9,10/05/2023,13:54:23.800,0.000,-0.063,-1.000,,,,,
1_S9,10/05/2023,13:54:23.900,-0.063,0.125,-1.063,,,,,
1_S9,10/05/2023,13:54:24.000,-0.063,0.250,-1.000,169.5,-954.0,889.5,,
1_S9,10/05/2023,13:54:24.100,-0.125,0.394,-0.994,,,,,
1_S9,10/05/2023,13:54:24.200,-0.150,0.588,-0.963,,,,,
1_S9,10/05/2023,13:54:24.300,-0.213,0.706,-0.969,,,,,
1_S9,10/05/2023,13:54:24.400,-0.150,0.775,-0.725,,,,,
1_S9,10/05/2023,13:54:24.500,-0.188,0.875,-0.594,181.5,-1620.0,807.0,,
1_S9,10/05/2023,13:54:24.600,-0.188,0.975,-0.425,,,,,
1_S9,10/05/2023,13:54:24.700,-0.231,1.000,-0.244,,,,,
1_S9,10/05/2023,13:54:24.800,-0.250,1.050,-0.038,,,,,
1_S9,10/05/2023,13:54:24.900,-0.188,1.063,0.063,,,,,
1_S9,10/05/2023,13:54:25.000,-0.188,1.063,0.125,183.0,-1674.0,556.5,,
1_S9,10/05/2023,13:54:25.100,-0.188,1.063,0.188,,,,,
1_S9,10/05/2023,13:54:25.200,-0.125,1.000,0.313,,,,,
1_S9,10/05/2023,13:54:25.300,0.000,1.000,0.375,,,,,
1_S9,10/05/2023,13:54:25.400,0.000,0.938,0.438,,,,,
1_S9,10/05/2023,13:54:25.500,0.000,1.000,0.438,87.0,-1822.5,468.0,,
1_S9,10/05/2023,13:54:25.600,0.000,0.938,0.500,,,,,
1_S9,10/05/2023,13:54:25.700,0.000,0.938,0.500,,,,,
1_S9,10/05/2023,13:54:25.800,0.000,0.938,0.625,,,,,
1_S9,10/05/2023,13:54:25.900,0.000,0.813,0.688,,,,,
1_S9,10/05/2023,13:54:26.000,0.000,0.750,0.750,91.5,-1762.5,387.0,,
1_S9,10/05/2023,13:54:26.100,0.000,0.625,0.813,,,,,
1_S9,10/05/2023,13:54:26.200,-0.063,0.625,0.813,,,,,
1_S9,10/05/2023,13:54:26.300,0.000,0.500,0.875,,,,,
1_S9,10/05/2023,13:54:26.400,0.000,0.438,0.875,,,,,
1_S9,10/05/2023,13:54:26.500,0.000,0.375,0.938,39.0,-1644.0,331.5,,
1_S9,10/05/2023,13:54:26.600,0.000,0.313,0.938,,,,,
1_S9,10/05/2023,13:54:26.700,0.063,0.250,1.000,,,,,
1_S9,10/05/2023,13:54:26.800,0.063,0.188,1.000,,,,,
1_S9,10/05/2023,13:54:26.900,0.000,0.063,0.938,,,,,
1_S9,10/05/2023,13:54:27.000,0.063,-0.063,1.000,49.5,-1489.5,283.5,23,
1_S9,10/05/2023,13:54:27.100,0.063,-0.125,1.000,,,,,
1_S9,10/05/2023,13:54:27.200,0.063,-0.250,0.938,,,,,
1_S9,10/05/2023,13:54:27.300,0.063,-0.313,0.938,,,,,
1_S9,10/05/2023,13:54:27.400,0.063,-0.375,0.938,,,,,
1_S9,10/05/2023,13:54:27.500,0.063,-0.313,0.875,106.5,-1225.5,340.5,,
1_S9,10/05/2023,13:54:27.600,0.063,-0.688,0.750,,,,,
1_S9,10/05/2023,13:54:27.700,0.000,-0.625,0.688,,,,,
1_S9,10/05/2023,13:54:27.800,0.000,-0.750,0.563,,,,,
1_S9,10/05/2023,13:54:27.900,0.063,-0.750,0.625,,,,,
1_S9,10/05/2023,13:54:28.000,0.063,-0.688,0.625,129.0,-384.0,267.0,,
1_S9,10/05/2023,13:54:28.100,0.000,-0.750,0.563,,,,,
1_S9,10/05/2023,13:54:28.200,0.000,-0.750,0.563,,,,,
1_S9,10/05/2023,13:54:28.300,0.000,-0.938,0.375,,,,,
1_S9,10/05/2023,13:54:28.400,0.000,-1.063,0.125,,,,,
1_S9,10/05/2023,13:54:28.500,0.000,-1.000,0.125,132.0,-204.0,391.5,,
1_S9,10/05/2023,13:54:28.600,0.000,-1.000,0.125,,,,,
1_S9,10/05/2023,13:54:28.700,0.000,-1.000,0.125,,,,,
1_S9,10/05/2023,13:54:28.800,-0.063,-1.000,0.063,,,,,
1_S9,10/05/2023,13:54:28.900,-0.125,-1.000,0.000,,,,,
1_S9,10/05/2023,13:54:29.000,-0.125,-0.938,-0.063,189.0,-175.5,459.0,,
1_S9,10/05/2023,13:54:29.100,-0.063,-1.044,-0.269,,,,,
1_S9,10/05/2023,13:54:29.200,-0.063,-0.875,-0.450,,,,,
1_S9,10/05/2023,13:54:29.300,-0.063,-0.857,-0.519,,,,,
1_S9,10/05/2023,13:54:29.400,-0.088,-0.788,-0.588,,,,,
1_S9,10/05/2023,13:54:29.500,-0.094,-0.719,-0.688,178.5,-280.5,676.5,,
1_S9,10/05/2023,13:54:29.600,-0.063,-0.650,-0.788,,,,,
1_S9,10/05/2023,13:54:29.700,-0.063,-0.581,-0.857,,,,,
1_S9,10/05/2023,13:54:29.800,-0.113,-0.463,-0.875,,,,,
1_S9,10/05/2023,13:54:29.900,-0.063,-0.375,-0.938,,,,,
1_S9,10/05/2023,13:54:30.000,-0.125,-0.313,-0.938,181.5,-478.5,811.5,,
1_S9,10/05/2023,13:54:30.100,-0.063,-0.313,-0.938,,,,,
1_S9,10/05/2023,13:54:30.200,-0.125,-0.188,-1.000,,,,,
1_S9,10/05/2023,13:54:30.300,-0.125,-0.125,-1.000,,,,,
1_S9,10/05/2023,13:54:30.400,0.000,0.000,-1.000,,,,,
1_S9,10/05/2023,13:54:30.500,-0.125,0.000,-1.063,163.5,-732.0,870.0,,
1_S9,10/05/2023,13:54:30.600,-0.125,0.125,-1.063,,,,,
1_S9,10/05/2023,13:54:30.700,-0.188,0.250,-1.000,,,,,
1_S9,10/05/2023,13:54:30.800,-0.188,0.375,-0.875,,,,,
1_S9,10/05/2023,13:54:30.900,-0.250,0.500,-0.875,,,,,
1_S9,10/05/2023,13:54:31.000,-0.188,0.563,-0.875,223.5,-1251.0,873.0,,
1_S9,10/05/2023,13:54:31.100,-0.250,0.750,-0.813,,,,,
1_S9,10/05/2023,13:54:31.200,-0.125,0.750,-0.750,,,,,
1_S9,10/05/2023,13:54:31.300,-0.125,0.813,-0.688,,,,,
1_S9,10/05/2023,13:54:31.400,-0.188,0.875,-0.563,,,,,
1_S9,10/05/2023,13:54:31.500,-0.188,0.938,-0.563,186.0,-1620.0,808.5,,
1_S9,10/05/2023,13:54:31.600,-0.125,0.938,-0.438,,,,,
1_S9,10/05/2023,13:54:31.700,-0.188,1.000,-0.438,,,,,
1_S9,10/05/2023,13:54:31.800,-0.188,1.000,-0.375,,,,,
1_S9,10/05/2023,13:54:31.900,-0.188,1.000,-0.313,,,,,
1_S9,10/05/2023,13:54:32.000,-0.188,1.063,-0.250,187.5,-1663.5,699.0,23,
1_S9,10/05/2023,13:54:32.100,-0.188,1.063,-0.188,,,,,
1_S9,10/05/2023,13:54:32.200,-0.125,1.063,-0.125,,,,,
1_S9,10/05/2023,13:54:32.300,-0.250,1.000,-0.125,,,,,
1_S9,10/05/2023,13:54:32.400,-0.250,1.000,0.063,,,,,
1_S9,10/05/2023,13:54:32.500,-0.188,1.063,0.063,192.0,-1693.5,622.5,,
1_S9,10/05/2023,13:54:32.600,-0.188,1.063,0.125,,,,,
1_S9,10/05/2023,13:54:32.700,-0.188,1.063,0.250,,,,,
1_S9,10/05/2023,13:54:32.800,-0.250,1.000,0.313,,,,,
1_S9,10/05/2023,13:54:32.900,-0.188,1.000,0.438,,,,,
1_S9,10/05/2023,13:54:33.000,-0.125,0.813,0.688,111.0,-1767.0,465.0,,
1_S9,10/05/2023,13:54:33.100,-0.125,0.688,0.750,,,,,
1_S9,10/05/2023,13:54:33.200,-0.125,0.563,0.875,,,,,
1_S9,10/05/2023,13:54:33.300,-0.063,0.438,0.938,,,,,
1_S9,10/05/2023,13:54:33.400,-0.063,0.250,1.063,,,,,
1_S9,10/05/2023,13:54:33.500,0.000,0.313,1.000,60.0,-1627.5,313.5,,
1_S9,10/05/2023,13:54:33.600,-0.063,0.313,1.000,,,,,
1_S9,10/05/2023,13:54:33.700,-0.063,0.250,0.938,,,,,
1_S9,10/05/2023,13:54:33.800,-0.125,0.313,1.000,,,,,
1_S9,10/05/2023,13:54:33.900,-0.375,0.000,1.500,,,,,
1_S9,10/05/2023,13:54:34.000,-0.375,0.250,0.938,297.0,-1429.5,91.5,,
1_S9,10/05/2023,13:54:34.100,-0.456,0.238,0.863,,,,,
1_S9,10/05/2023,13:54:34.200,-0.663,0.125,0.713,,,,,
1_S9,10/05/2023,13:54:34.300,-0.850,0.106,0.506,,,,,
1_S9,10/05/2023,13:54:34.400,-0.938,0.063,0.350,,,,,
1_S9,10/05/2023,13:54:34.500,-0.969,0.063,0.313,370.5,-1465.5,441.0,,
1_S9,10/05/2023,13:54:34.600,-1.000,0.063,0.350,,,,,
1_S9,10/05/2023,13:54:34.700,-0.869,0.106,0.550,,,,,
1_S9,10/05/2023,13:54:34.800,-0.713,0.075,0.675,,,,,
1_S9,10/05/2023,13:54:34.900,-0.563,0.125,0.750,,,,,
1_S9,10/05/2023,13:54:35.000,-0.438,0.188,0.875,369.0,-1480.5,222.0,,
1_S9,10/05/2023,13:54:35.100,-0.375,0.063,0.938,,,,,
1_S9,10/05/2023,13:54:35.200,-0.313,0.125,1.000,,,,,
1_S9,10/05/2023,13:54:35.300,-0.188,0.188,0.938,,,,,
1_S9,10/05/2023,13:54:35.400,-0.063,0.313,1.125,,,,,
1_S9,10/05/2023,13:54:35.500,0.063,0.188,1.063,198.0,-1495.5,31.5,,
1_S9,10/05/2023,13:54:35.600,0.125,0.125,1.000,,,,,
1_S9,10/05/2023,13:54:35.700,0.250,0.125,0.875,,,,,
1_S9,10/05/2023,13:54:35.800,0.375,0.125,0.938,,,,,
1_S9,10/05/2023,13:54:35.900,0.438,0.188,0.813,,,,,
1_S9,10/05/2023,13:54:36.000,0.625,0.063,0.750,-10.5,-1578.0,-6.0,,
1_S9,10/05/2023,13:54:36.100,0.750,0.063,0.688,,,,,
1_S9,10/05/2023,13:54:36.200,0.688,0.000,0.625,,,,,
1_S9,10/05/2023,13:54:36.300,0.750,0.000,0.563,,,,,
1_S9,10/05/2023,13:54:36.400,0.875,0.063,0.375,,,,,
1_S9,10/05/2023,13:54:36.500,1.000,0.063,0.188,34.5,-1506.0,24.0,,
1_S9,10/05/2023,13:54:36.600,0.938,0.063,0.063,,,,,
1_S9,10/05/2023,13:54:36.700,0.938,0.063,-0.125,,,,,
1_S9,10/05/2023,13:54:36.800,0.938,-0.063,-0.188,,,,,
1_S9,10/05/2023,13:54:36.900,0.875,0.063,-0.313,,,,,
1_S9,10/05/2023,13:54:37.000,0.875,0.063,-0.438,-60.0,-1449.0,268.5,23,
1_S9,10/05/2023,13:54:37.100,0.875,0.125,-0.438,,,,,
1_S9,10/05/2023,13:54:37.200,0.813,0.063,-0.500,,,,,
1_S9,10/05/2023,13:54:37.300,0.750,0.188,-0.688,,,,,
1_S9,10/05/2023,13:54:37.400,0.750,0.188,-0.688,,,,,
1_S9,10/05/2023,13:54:37.500,0.625,-0.063,-0.688,-439.5,-1092.0,669.0,,
1_S9,10/05/2023,13:54:37.600,0.563,0.125,-0.750,,,,,
1_S9,10/05/2023,13:54:37.700,0.500,0.125,-0.875,,,,,
1_S9,10/05/2023,13:54:37.800,0.313,0.250,-1.000,,,,,
1_S9,10/05/2023,13:54:37.900,0.125,0.250,-1.000,,,,,
1_S9,10/05/2023,13:54:38.000,0.000,0.250,-1.000,-405.0,-1122.0,858.0,,
1_S9,10/05/2023,13:54:38.100,-0.069,0.125,-1.057,,,,,
1_S9,10/05/2023,13:54:38.200,-0.163,0.125,-0.988,,,,,
1_S9,10/05/2023,13:54:38.300,-0.350,0.106,-0.938,,,,,
1_S9,10/05/2023,13:54:38.400,-0.438,0.063,-0.938,,,,,
1_S9,10/05/2023,13:54:38.500,-0.469,0.094,-0.907,-54.0,-891.0,921.0,,
1_S9,10/05/2023,13:54:38.600,-0.575,0.125,-0.838,,,,,
1_S9,10/05/2023,13:54:38.700,-0.713,0.169,-0.813,,,,,
1_S9,10/05/2023,13:54:38.800,-0.900,0.138,-0.613,,,,,
1_S9,10/05/2023,13:54:38.900,-0.875,0.000,-0.438,,,,,
1_S9,10/05/2023,13:54:39.000,-0.875,0.063,-0.438,258.0,-939.0,828.0,,
1_S9,10/05/2023,13:54:39.100,-1.000,0.000,-0.250,,,,,
1_S9,10/05/2023,13:54:39.200,-1.000,0.063,-0.188,,,,,
1_S9,10/05/2023,13:54:39.300,-1.000,0.063,-0.125,,,,,
1_S9,10/05/2023,13:54:39.400,-0.938,0.000,0.063,,,,,
1_S9,10/05/2023,13:54:39.500,-1.000,0.000,0.063,397.5,-876.0,651.0,,
1_S9,10/05/2023,13:54:39.600,-1.125,0.000,0.063,,,,,
1_S9,10/05/2023,13:54:39.700,-1.063,0.000,0.125,,,,,
1_S9,10/05/2023,13:54:39.800,-1.000,-0.125,0.125,,,,,
1_S9,10/05/2023,13:54:39.900,-0.938,0.063,0.313,,,,,
1_S9,10/05/2023,13:54:40.000,-1.000,-0.063,0.375,402.0,-864.0,508.5,,
1_S9,10/05/2023,13:54:40.100,-0.938,-0.063,0.438,,,,,
1_S9,10/05/2023,13:54:40.200,-0.813,-0.063,0.500,,,,,
1_S9,10/05/2023,13:54:40.300,-0.813,-0.125,0.563,,,,,
1_S9,10/05/2023,13:54:40.400,-0.813,-0.125,0.625,,,,,
1_S9,10/05/2023,13:54:40.500,-0.813,-0.125,0.625,390.0,-903.0,309.0,,
1_S9,10/05/2023,13:54:40.600,-0.750,-0.125,0.688,,,,,
1_S9,10/05/2023,13:54:40.700,-0.750,-0.125,0.688,,,,,
1_S9,10/05/2023,13:54:40.800,-0.625,0.063,1.000,,,,,
1_S9,10/05/2023,13:54:40.900,-0.313,0.063,0.938,,,,,
1_S9,10/05/2023,13:54:41.000,-0.188,0.063,1.000,136.5,-964.5,172.5,,
1_S9,10/05/2023,13:54:41.100,-0.063,0.125,1.063,,,,,
1_S9,10/05/2023,13:54:41.200,0.063,0.063,1.000,,,,,
1_S9,10/05/2023,13:54:41.300,0.188,0.063,1.000,,,,,
1_S9,10/05/2023,13:54:41.400,0.188,0.125,1.000,,,,,
1_S9,10/05/2023,13:54:41.500,0.250,0.125,1.063,-34.5,-942.0,133.5,,
1_S9,10/05/2023,13:54:41.600,0.375,-0.125,0.938,,,,,
1_S9,10/05/2023,13:54:41.700,0.438,-0.125,0.938,,,,,
1_S9,10/05/2023,13:54:41.800,0.375,-0.125,0.875,,,,,
1_S9,10/05/2023,13:54:41.900,0.313,-0.188,0.938,,,,,
1_S9,10/05/2023,13:54:42.000,0.438,-0.125,0.875,-82.5,-888.0,174.0,23,
1_S9,10/05/2023,13:54:42.100,0.438,-0.125,0.813,,,,,
1_S9,10/05/2023,13:54:42.200,0.500,-0.125,0.813,,,,,
1_S9,10/05/2023,13:54:42.300,0.500,-0.188,0.750,,,,,
1_S9,10/05/2023,13:54:42.400,0.500,-0.125,0.813,,,,,
1_S9,10/05/2023,13:54:42.500,0.625,-0.063,0.750,-151.5,-901.5,216.0,,
1_S9,10/05/2023,13:54:42.600,0.625,-0.125,0.688,,,,,
1_S9,10/05/2023,13:54:42.700,0.688,-0.125,0.750,,,,,
1_S9,10/05/2023,13:54:42.800,0.688,-0.125,0.625,,,,,
1_S9,10/05/2023,13:54:42.900,0.813,-0.125,0.563,,,,,
1_S9,10/05/2023,13:54:43.000,0.813,-0.125,0.500,-243.0,-894.0,354.0,,
1_S9,10/05/2023,13:54:43.100,0.750,-0.056,0.613,,,,,
1_S9,10/05/2023,13:54:43.200,0.763,0.000,0.500,,,,,
1_S9,10/05/2023,13:54:43.300,0.813,-0.038,0.500,,,,,
1_S9,10/05/2023,13:54:43.400,0.838,-0.125,0.450,,,,,
1_S9,10/05/2023,13:54:43.500,0.875,-0.125,0.344,-531.0,-829.5,358.5,,
1_S9,10/05/2023,13:54:43.600,0.913,-0.125,0.238,,,,,
1_S9,10/05/2023,13:54:43.700,0.938,0.050,0.231,,,,,
1_S9,10/05/2023,13:54:43.800,0.988,-0.075,0.150,,,,,
1_S9,10/05/2023,13:54:43.900,1.000,-0.125,0.000,,,,,
1_S9,10/05/2023,13:54:44.000,1.188,-0.188,-0.125,-549.0,-832.5,517.5,,
1_S9,10/05/2023,13:54:44.100,0.938,-0.125,-0.125,,,,,
1_S9,10/05/2023,13:54:44.200,0.938,-0.125,-0.188,,,,,
1_S9,10/05/2023,13:54:44.300,0.875,-0.125,-0.188,,,,,
1_S9,10/05/2023,13:54:44.400,0.875,-0.125,-0.188,,,,,
1_S9,10/05/2023,13:54:44.500,0.938,-0.125,-0.250,-585.0,-937.5,573.0,,
1_S9,10/05/2023,13:54:44.600,0.813,-0.125,-0.375,,,,,
1_S9,10/05/2023,13:54:44.700,0.875,-0.125,-0.500,,,,,
1_S9,10/05/2023,13:54:44.800,0.813,-0.125,-0.500,,,,,
1_S9,10/05/2023,13:54:44.900,0.750,-0.125,-0.563,,,,,
1_S9,10/05/2023,13:54:45.000,0.750,0.063,-0.625,-516.0,-1036.5,640.5,,
1_S9,10/05/2023,13:54:45.100,0.750,-0.125,-0.688,,,,,
1_S9,10/05/2023,13:54:45.200,0.625,0.063,-0.688,,,,,
1_S9,10/05/2023,13:54:45.300,0.563,0.000,-0.813,,,,,
1_S9,10/05/2023,13:54:45.400,0.500,0.063,-0.875,,,,,
1_S9,10/05/2023,13:54:45.500,0.375,0.063,-0.875,-406.5,-1119.0,777.0,,
1_S9,10/05/2023,13:54:45.600,0.375,0.063,-0.938,,,,,
1_S9,10/05/2023,13:54:45.700,0.313,0.063,-0.938,,,,,
1_S9,10/05/2023,13:54:45.800,0.250,0.000,-1.000,,,,,
1_S9,10/05/2023,13:54:45.900,0.125,0.000,-1.000,,,,,
1_S9,10/05/2023,13:54:46.000,0.063,-0.063,-1.000,-204.0,-1027.5,871.5,,
1_S9,10/05/2023,13:54:46.100,0.063,-0.063,-1.000,,,,,
1_S9,10/05/2023,13:54:46.200,-0.063,0.063,-1.000,,,,,
1_S9,10/05/2023,13:54:46.300,-0.125,0.063,-1.063,,,,,
1_S9,10/05/2023,13:54:46.400,-0.250,0.000,-0.938,,,,,
1_S9,10/05/2023,13:54:46.500,-0.313,0.125,-1.000,45.0,-1078.5,861.0,,
1_S9,10/05/2023,13:54:46.600,-0.375,0.125,-1.000,,,,,
1_S9,10/05/2023,13:54:46.700,-0.438,0.125,-0.938,,,,,
1_S9,10/05/2023,13:54:46.800,-0.500,0.125,-0.938,,,,,
1_S9,10/05/2023,13:54:46.900,-0.625,0.188,-0.875,,,,,
1_S9,10/05/2023,13:54:47.000,-0.688,0.188,-0.750,216.0,-1131.0,759.0,24,
1_S9,10/05/2023,13:54:47.100,-0.750,0.125,-0.750,,,,,
1_S9,10/05/2023,13:54:47.200,-0.813,0.125,-0.688,,,,,
1_S9,10/05/2023,13:54:47.300,-0.813,0.125,-0.688,,,,,
1_S9,10/05/2023,13:54:47.400,-0.813,0.188,-0.625,,,,,
1_S9,10/05/2023,13:54:47.500,-0.813,0.250,-0.625,331.5,-1056.0,661.5,,
1_S9,10/05/2023,13:54:47.600,-0.813,0.188,-0.500,,,,,
1_S9,10/05/2023,13:54:47.700,-0.875,0.250,-0.500,,,,,
1_S9,10/05/2023,13:54:47.800,-0.875,0.188,-0.438,,,,,
1_S9,10/05/2023,13:54:47.900,-0.875,0.125,-0.500,,,,,
1_S9,10/05/2023,13:54:48.000,-0.875,0.188,-0.438,366.0,-1051.5,585.0,,
1_S9,10/05/2023,13:54:48.100,-0.932,0.138,-0.488,,,,,
1_S9,10/05/2023,13:54:48.200,-0.888,0.263,-0.388,,,,,
1_S9,10/05/2023,13:54:48.300,-0.919,0.331,-0.419,,,,,
1_S9,10/05/2023,13:54:48.400,-0.875,0.350,-0.425,,,,,
1_S9,10/05/2023,13:54:48.500,-0.907,0.313,-0.438,321.0,-1147.5,567.0,,
1_S9,10/05/2023,13:54:48.600,-0.900,0.313,-0.375,,,,,
1_S9,10/05/2023,13:54:48.700,-0.919,0.269,-0.375,,,,,
1_S9,10/05/2023,13:54:48.800,-0.938,0.350,-0.275,,,,,
1_S9,10/05/2023,13:54:48.900,-0.938,0.375,-0.250,,,,,
1_S9,10/05/2023,13:54:49.000,-1.000,0.375,-0.250,358.5,-1179.0,457.5,,
1_S9,10/05/2023,13:54:49.100,-0.938,0.313,-0.063,,,,,
1_S9,10/05/2023,13:54:49.200,-1.000,0.250,0.000,,,,,
1_S9,10/05/2023,13:54:49.300,-0.938,0.313,0.063,,,,,
1_S9,10/05/2023,13:54:49.400,-1.000,0.375,0.125,,,,,
1_S9,10/05/2023,13:54:49.500,-1.000,0.313,0.125,322.5,-1092.0,328.5,,
1_S9,10/05/2023,13:54:49.600,-1.000,0.313,0.188,,,,,
1_S9,10/05/2023,13:54:49.700,-0.938,0.250,0.250,,,,,
1_S9,10/05/2023,13:54:49.800,-0.938,0.375,0.313,,,,,
1_S9,10/05/2023,13:54:49.900,-0.938,0.438,0.250,,,,,
1_S9,10/05/2023,13:54:50.000,-0.813,0.438,0.438,268.5,-1068.0,273.0,,
1_S9,10/05/2023,13:54:50.100,-0.813,0.500,0.438,,,,,
1_S9,10/05/2023,13:54:50.200,-0.750,0.500,0.438,,,,,
1_S9,10/05/2023,13:54:50.300,-0.813,0.563,0.500,,,,,
1_S9,10/05/2023,13:54:50.400,-0.750,0.500,0.563,,,,,
1_S9,10/05/2023,13:54:50.500,-0.875,0.500,0.500,184.5,-1083.0,181.5,,
1_S9,10/05/2023,13:54:50.600,-0.813,0.438,0.625,,,,,
1_S9,10/05/2023,13:54:50.700,-0.750,0.438,0.563,,,,,
1_S9,10/05/2023,13:54:50.800,-0.688,0.375,0.688,,,,,
1_S9,10/05/2023,13:54:50.900,-0.688,0.313,0.625,,,,,
1_S9,10/05/2023,13:54:51.000,-0.688,0.313,0.688,168.0,-1029.0,145.5,,
1_S9,10/05/2023,13:54:51.100,-0.625,0.250,0.813,,,,,
1_S9,10/05/2023,13:54:51.200,-0.500,0.250,0.813,,,,,
1_S9,10/05/2023,13:54:51.300,-0.500,0.188,0.875,,,,,
1_S9,10/05/2023,13:54:51.400,-0.500,0.125,0.875,,,,,
1_S9,10/05/2023,13:54:51.500,-0.438,-0.063,0.938,36.0,-898.5,97.5,,
1_S9,10/05/2023,13:54:51.600,-0.313,-0.188,0.875,,,,,
1_S9,10/05/2023,13:54:51.700,-0.375,-0.125,0.938,,,,,
1_S9,10/05/2023,13:54:51.800,-0.250,-0.125,1.000,,,,,
1_S9,10/05/2023,13:54:51.900,-0.188,-0.063,1.000,,,,,
1_S9,10/05/2023,13:54:52.000,-0.125,-0.125,0.938,-97.5,-843.0,126.0,23,
1_S9,10/05/2023,13:54:52.100,-0.125,-0.125,1.000,,,,,
1_S9,10/05/2023,13:54:52.200,-0.063,-0.250,1.000,,,,,
1_S9,10/05/2023,13:54:52.300,0.000,-0.188,1.000,,,,,
1_S9,10/05/2023,13:54:52.400,0.188,-0.188,0.938,,,,,
1_S9,10/05/2023,13:54:52.500,0.250,-0.125,1.000,-217.5,-852.0,207.0,,
1_S9,10/05/2023,13:54:52.600,0.438,-0.188,0.875,,,,,
1_S9,10/05/2023,13:54:52.700,0.563,-0.188,0.813,,,,,
1_S9,10/05/2023,13:54:52.800,0.625,-0.125,0.750,,,,,
1_S9,10/05/2023,13:54:52.900,0.688,-0.125,0.625,,,,,
1_S9,10/05/2023,13:54:53.000,0.875,-0.188,0.563,-34.5,-861.0,400.5,,
1_S9,10/05/2023,13:54:53.100,0.813,-0.125,0.488,,,,,
1_S9,10/05/2023,13:54:53.200,0.838,-0.125,0.363,,,,,
1_S9,10/05/2023,13:54:53.300,0.938,-0.125,0.294,,,,,
1_S9,10/05/2023,13:54:53.400,0.938,-0.125,0.225,,,,,
1_S9,10/05/2023,13:54:53.500,0.938,-0.094,0.156,121.5,-918.0,483.0,,
1_S9,10/05/2023,13:54:53.600,0.938,-0.025,0.088,,,,,
1_S9,10/05/2023,13:54:53.700,0.982,-0.088,-0.069,,,,,
1_S9,10/05/2023,13:54:53.800,0.950,-0.025,-0.125,,,,,
1_S9,10/05/2023,13:54:53.900,0.938,-0.063,-0.125,,,,,
1_S9,10/05/2023,13:54:54.000,0.938,0.063,-0.250,196.5,-966.0,615.0,,
1_S9,10/05/2023,13:54:54.100,0.875,0.125,-0.313,,,,,
1_S9,10/05/2023,13:54:54.200,0.875,0.125,-0.500,,,,,
1_S9,10/05/2023,13:54:54.300,0.813,0.188,-0.500,,,,,
1_S9,10/05/2023,13:54:54.400,0.750,0.188,-0.500,,,,,
1_S9,10/05/2023,13:54:54.500,0.750,0.250,-0.563,328.5,-1048.5,672.0,,
1_S9,10/05/2023,13:54:54.600,0.750,0.313,-0.625,,,,,
1_S9,10/05/2023,13:54:54.700,0.688,0.375,-0.625,,,,,
1_S9,10/05/2023,13:54:54.800,0.563,0.375,-0.688,,,,,
1_S9,10/05/2023,13:54:54.900,0.625,0.375,-0.813,,,,,
1_S9,10/05/2023,13:54:55.000,0.563,0.438,-0.750,492.0,-1114.5,681.0,,
1_S9,10/05/2023,13:54:55.100,0.563,0.500,-0.750,,,,,
1_S9,10/05/2023,13:54:55.200,0.500,0.438,-0.750,,,,,
1_S9,10/05/2023,13:54:55.300,0.500,0.500,-0.688,,,,,
1_S9,10/05/2023,13:54:55.400,0.500,0.563,-0.688,,,,,
1_S9,10/05/2023,13:54:55.500,0.375,0.563,-0.813,568.5,-1135.5,694.5,,
1_S9,10/05/2023,13:54:55.600,0.313,0.625,-0.813,,,,,
1_S9,10/05/2023,13:54:55.700,0.188,0.625,-0.813,,,,,
1_S9,10/05/2023,13:54:55.800,0.063,0.563,-0.813,,,,,
1_S9,10/05/2023,13:54:55.900,0.000,0.688,-0.813,,,,,
1_S9,10/05/2023,13:54:56.000,-0.125,0.625,-0.813,756.0,-1132.5,600.0,,
1_S9,10/05/2023,13:54:56.100,-0.125,0.688,-0.875,,,,,
1_S9,10/05/2023,13:54:56.200,-0.313,0.625,-0.813,,,,,
1_S9,10/05/2023,13:54:56.300,-0.375,0.625,-0.750,,,,,
1_S9,10/05/2023,13:54:56.400,-0.438,0.625,-0.813,,,,,
1_S9,10/05/2023,13:54:56.500,-0.438,0.688,-0.688,699.0,-1153.5,511.5,,
1_S9,10/05/2023,13:54:56.600,-0.500,0.563,-0.688,,,,,
1_S9,10/05/2023,13:54:56.700,-0.500,0.625,-0.688,,,,,
1_S9,10/05/2023,13:54:56.800,-0.625,0.688,-0.625,,,,,
1_S9,10/05/2023,13:54:56.900,-0.625,0.500,-0.563,,,,,
1_S9,10/05/2023,13:54:57.000,-0.625,0.438,-0.625,223.5,-1855.5,592.5,23,
1_S9,10/05/2023,13:54:57.100,-0.756,0.506,-0.494,,,,,
1_S9,10/05/2023,13:54:57.200,-0.813,0.563,-0.425,,,,,
1_S9,10/05/2023,13:54:57.300,-0.832,0.525,-0.338,,,,,
1_S9,10/05/2023,13:54:57.400,-0.900,0.438,-0.200,,,,,
1_S9,10/05/2023,13:54:57.500,-0.938,0.469,-0.125,309.0,-1687.5,381.0,,
1_S9,10/05/2023,13:54:57.600,-0.975,0.425,-0.125,,,,,
1_S9,10/05/2023,13:54:57.700,-0.869,0.375,-0.038,,,,,
1_S9,10/05/2023,13:54:57.800,-0.913,0.375,0.100,,,,,
1_S9,10/05/2023,13:54:57.900,-0.938,0.375,0.188,,,,,
1_S9,10/05/2023,13:54:58.000,-0.938,0.375,0.313,270.0,-1677.0,183.0,,
1_S9,10/05/2023,13:54:58.100,-0.813,0.375,0.438,,,,,
1_S9,10/05/2023,13:54:58.200,-0.813,0.313,0.438,,,,,
1_S9,10/05/2023,13:54:58.300,-0.813,0.438,0.563,,,,,
1_S9,10/05/2023,13:54:58.400,-0.750,0.438,0.563,,,,,
1_S9,10/05/2023,13:54:58.500,-0.688,0.438,0.563,78.0,-1695.0,33.0,,
1_S9,10/05/2023,13:54:58.600,-0.750,0.438,0.688,,,,,
1_S9,10/05/2023,13:54:58.700,-0.813,0.375,0.625,,,,,
1_S9,10/05/2023,13:54:58.800,-0.688,0.438,0.625,,,,,
1_S9,10/05/2023,13:54:58.900,-0.563,0.438,0.688,,,,,
1_S9,10/05/2023,13:54:59.000,-0.500,0.375,0.875,9.0,-1687.5,-1.5,,
1_S9,10/05/2023,13:54:59.100,-0.500,0.375,0.750,,,,,
1_S9,10/05/2023,13:54:59.200,-0.438,0.313,0.875,,,,,
1_S9,10/05/2023,13:54:59.300,-0.375,0.250,0.938,,,,,
1_S9,10/05/2023,13:54:59.400,-0.188,0.188,1.000,,,,,
1_S9,10/05/2023,13:54:59.500,-0.125,0.250,1.000,-154.5,-1624.5,12.0,,
1_S9,10/05/2023,13:54:59.600,-0.125,0.250,1.000,,,,,
1_S9,10/05/2023,13:54:59.700,-0.063,0.250,0.938,,,,,
1_S9,10/05/2023,13:54:59.800,-0.063,0.250,0.938,,,,,
1_S9,10/05/2023,13:54:59.900,0.000,0.188,1.000,,,,,
1_S9,10/05/2023,13:55:00.000,0.000,0.188,1.000,-235.5,-1554.0,43.5,,
1_S9,10/05/2023,13:55:00.100,0.063,0.188,0.938,,,,,
1_S9,10/05/2023,13:55:00.200,0.125,0.188,1.000,,,,,
1_S9,10/05/2023,13:55:00.300,0.063,0.313,0.813,,,,,
1_S9,10/05/2023,13:55:00.400,0.250,0.125,1.000,,,,,
1_S9,10/05/2023,13:55:00.500,0.313,0.188,0.938,-309.0,-1575.0,108.0,,
1_S9,10/05/2023,13:55:00.600,0.438,0.188,0.875,,,,,
1_S9,10/05/2023,13:55:00.700,0.563,0.063,0.813,,,,,
1_S9,10/05/2023,13:55:00.800,0.625,0.188,0.750,,,,,
1_S9,10/05/2023,13:55:00.900,0.625,0.063,0.688,,,,,
1_S9,10/05/2023,13:55:01.000,0.750,0.063,0.625,-144.0,-1603.5,273.0,,
1_S9,10/05/2023,13:55:01.100,0.813,0.063,0.500,,,,,
1_S9,10/05/2023,13:55:01.200,0.875,0.063,0.438,,,,,
1_S9,10/05/2023,13:55:01.300,0.875,0.125,0.375,,,,,
1_S9,10/05/2023,13:55:01.400,0.875,0.063,0.188,,,,,
1_S9,10/05/2023,13:55:01.500,0.938,0.063,0.063,-100.5,-1624.5,463.5,,
1_S9,10/05/2023,13:55:01.600,0.938,0.063,-0.125,,,,,
1_S9,10/05/2023,13:55:01.700,0.938,0.125,-0.125,,,,,
1_S9,10/05/2023,13:55:01.800,0.938,0.125,-0.125,,,,,
1_S9,10/05/2023,13:55:01.900,0.938,0.125,-0.188,,,,,
1_S9,10/05/2023,13:55:02.000,0.875,0.063,-0.250,-19.5,-1657.5,597.0,23,
1_S9,10/05/2023,13:55:02.100,1.100,-0.044,-0.363,,,,,
1_S9,10/05/2023,13:55:02.200,0.888,0.138,-0.263,,,,,
1_S9,10/05/2023,13:55:02.300,0.900,0.169,-0.331,,,,,
1_S9,10/05/2023,13:55:02.400,0.838,0.150,-0.375,,,,,
1_S9,10/05/2023,13:55:02.500,0.844,0.188,-0.406,-481.5,-1066.5,819.0,,
1_S9,10/05/2023,13:55:02.600,0.813,0.188,-0.438,,,,,
1_S9,10/05/2023,13:55:02.700,0.813,0.231,-0.525,,,,,
1_S9,10/05/2023,13:55:02.800,0.763,0.250,-0.563,,,,,
1_S9,10/05/2023,13:55:02.900,0.750,0.188,-0.625,,,,,
1_S9,10/05/2023,13:55:03.000,0.625,0.188,-0.688,-405.0,-1104.0,885.0,,
1_S9,10/05/2023,13:55:03.100,0.625,0.250,-0.750,,,,,
1_S9,10/05/2023,13:55:03.200,0.563,0.188,-0.750,,,,,
1_S9,10/05/2023,13:55:03.300,0.500,0.250,-0.813,,,,,
1_S9,10/05/2023,13:55:03.400,0.500,0.188,-0.875,,,,,
1_S9,10/05/2023,13:55:03.500,0.563,0.125,-0.813,-327.0,-1147.5,900.0,,
1_S9,10/05/2023,13:55:03.600,0.500,0.188,-0.813,,,,,
1_S9,10/05/2023,13:55:03.700,0.313,0.188,-0.875,,,,,
1_S9,10/05/2023,13:55:03.800,0.375,0.188,-0.938,,,,,
1_S9,10/05/2023,13:55:03.900,0.375,0.188,-1.000,,,,,
1_S9,10/05/2023,13:55:04.000,0.250,0.188,-0.938,-63.0,-952.5,963.0,,
1_S9,10/05/2023,13:55:04.100,0.188,0.188,-0.938,,,,,
1_S9,10/05/2023,13:55:04.200,0.188,0.063,-0.938,,,,,
1_S9,10/05/2023,13:55:04.300,0.188,0.125,-1.000,,,,,
1_S9,10/05/2023,13:55:04.400,0.125,0.063,-1.000,,,,,
1_S9,10/05/2023,13:55:04.500,0.125,0.125,-1.000,96.0,-823.5,909.0,,
1_S9,10/05/2023,13:55:04.600,0.125,0.125,-1.000,,,,,
1_S9,10/05/2023,13:55:04.700,0.063,0.125,-1.000,,,,,
1_S9,10/05/2023,13:55:04.800,0.000,0.125,-1.000,,,,,
1_S9,10/05/2023,13:55:04.900,-0.125,0.125,-1.000,,,,,
1_S9,10/05/2023,13:55:05.000,-0.125,0.063,-0.938,204.0,-856.5,864.0,,
1_S9,10/05/2023,13:55:05.100,-0.188,0.125,-0.938,,,,,
1_S9,10/05/2023,13:55:05.200,-0.313,0.063,-1.000,,,,,
1_S9,10/05/2023,13:55:05.300,-0.313,0.125,-1.000,,,,,
1_S9,10/05/2023,13:55:05.400,-0.375,0.125,-1.000,,,,,
1_S9,10/05/2023,13:55:05.500,-0.438,0.063,-0.938,315.0,-807.0,789.0,,
1_S9,10/05/2023,13:55:05.600,-0.438,0.125,-0.938,,,,,
1_S9,10/05/2023,13:55:05.700,-0.438,0.063,-0.938,,,,,
1_S9,10/05/2023,13:55:05.800,-0.563,0.063,-0.875,,,,,
1_S9,10/05/2023,13:55:05.900,-0.688,0.125,-0.875,,,,,
1_S9,10/05/2023,13:55:06.000,-0.750,0.125,-0.813,408.0,-790.5,673.5,,
1_S9,10/05/2023,13:55:06.100,-0.813,0.125,-0.625,,,,,
1_S9,10/05/2023,13:55:06.200,-0.813,0.188,-0.563,,,,,
1_S9,10/05/2023,13:55:06.300,-0.875,0.188,-0.500,,,,,
1_S9,10/05/2023,13:55:06.400,-0.875,0.250,-0.500,,,,,
1_S9,10/05/2023,13:55:06.500,-0.813,0.250,-0.500,418.5,-754.5,526.5,,
1_S9,10/05/2023,13:55:06.600,-0.938,0.250,-0.313,,,,,
1_S9,10/05/2023,13:55:06.700,-1.000,0.250,-0.250,,,,,
1_S9,10/05/2023,13:55:06.800,-1.063,0.250,-0.125,,,,,
1_S9,10/05/2023,13:55:06.900,-1.000,0.125,0.000,,,,,
1_S9,10/05/2023,13:55:07.000,-1.125,0.313,0.125,270.0,-706.5,289.5,24,
1_S9,10/05/2023,13:55:07.100,-0.988,0.313,0.200,,,,,
1_S9,10/05/2023,13:55:07.200,-0.875,0.313,0.313,,,,,
1_S9,10/05/2023,13:55:07.300,-0.875,0.331,0.369,,,,,
1_S9,10/05/2023,13:55:07.400,-0.825,0.325,0.550,,,,,
1_S9,10/05/2023,13:55:07.500,-0.750,0.281,0.656,151.5,-666.0,166.5,,
1_S9,10/05/2023,13:55:07.600,-0.675,0.350,0.688,,,,,
1_S9,10/05/2023,13:55:07.700,-0.625,0.331,0.731,,,,,
1_S9,10/05/2023,13:55:07.800,-0.625,0.313,0.800,,,,,
1_S9,10/05/2023,13:55:07.900,-0.625,0.250,0.813,,,,,
1_S9,10/05/2023,13:55:08.000,-0.563,0.188,0.875,-21.0,-652.5,159.0,,
1_S9,10/05/2023,13:55:08.100,-0.500,0.188,0.875,,,,,
1_S9,10/05/2023,13:55:08.200,-0.500,0.188,0.875,,,,,
1_S9,10/05/2023,13:55:08.300,-0.438,0.125,0.938,,,,,
1_S9,10/05/2023,13:55:08.400,-0.375,0.188,0.875,,,,,
1_S9,10/05/2023,13:55:08.500,-0.313,0.125,1.000,-67.5,-582.0,108.0,,
1_S9,10/05/2023,13:55:08.600,-0.313,0.125,1.000,,,,,
1_S9,10/05/2023,13:55:08.700,-0.250,0.188,0.938,,,,,
1_S9,10/05/2023,13:55:08.800,-0.188,0.125,1.000,,,,,
1_S9,10/05/2023,13:55:08.900,-0.188,0.125,1.000,,,,,
1_S9,10/05/2023,13:55:09.000,-0.125,0.063,1.000,-160.5,-580.5,132.0,,
1_S9,10/05/2023,13:55:09.100,-0.125,0.063,0.938,,,,,
1_S9,10/05/2023,13:55:09.200,-0.063,0.000,1.063,,,,,
1_S9,10/05/2023,13:55:09.300,0.000,0.000,1.000,,,,,
1_S9,10/05/2023,13:55:09.400,0.063,0.000,1.000,,,,,
1_S9,10/05/2023,13:55:09.500,0.125,0.000,0.938,-270.0,-561.0,217.5,,
1_S9,10/05/2023,13:55:09.600,0.125,0.000,1.000,,,,,
1_S9,10/05/2023,13:55:09.700,0.250,0.063,0.938,,,,,
1_S9,10/05/2023,13:55:09.800,0.313,0.000,0.938,,,,,
1_S9,10/05/2023,13:55:09.900,0.313,0.063,0.938,,,,,
1_S9,10/05/2023,13:55:10.000,0.375,0.000,0.938,-366.0,-616.5,297.0,,
1_S9,10/05/2023,13:55:10.100,0.438,0.000,0.875,,,,,
1_S9,10/05/2023,13:55:10.200,0.438,0.063,0.875,,,,,
1_S9,10/05/2023,13:55:10.300,0.500,0.063,0.938,,,,,
1_S9,10/05/2023,13:55:10.400,0.500,-0.063,0.813,,,,,
1_S9,10/05/2023,13:55:10.500,0.500,0.000,0.875,-276.0,-675.0,349.5,,
1_S9,10/05/2023,13:55:10.600,0.500,0.125,0.750,,,,,
1_S9,10/05/2023,13:55:10.700,0.625,0.063,0.813,,,,,
1_S9,10/05/2023,13:55:10.800,0.563,0.063,0.688,,,,,
1_S9,10/05/2023,13:55:10.900,0.688,0.125,0.688,,,,,
1_S9,10/05/2023,13:55:11.000,0.750,0.125,0.625,-297.0,-681.0,456.0,,
1_S9,10/05/2023,13:55:11.100,0.813,0.069,0.494,,,,,
1_S9,10/05/2023,13:55:11.200,0.825,0.125,0.425,,,,,
1_S9,10/05/2023,13:55:11.300,0.913,0.106,0.225,,,,,
1_S9,10/05/2023,13:55:11.400,0.975,0.088,-0.050,,,,,
1_S9,10/05/2023,13:55:11.500,0.938,0.125,0.000,-256.5,-691.5,754.5,,
1_S9,10/05/2023,13:55:11.600,0.938,0.125,0.013,,,,,
1_S9,10/05/2023,13:55:11.700,0.938,0.169,-0.113,,,,,
1_S9,10/05/2023,13:55:11.800,0.938,0.188,-0.188,,,,,
1_S9,10/05/2023,13:55:11.900,0.875,0.250,-0.250,,,,,
1_S9,10/05/2023,13:55:12.000,0.875,0.313,-0.313,-163.5,-708.0,858.0,23,
1_S9,10/05/2023,13:55:12.100,0.875,0.313,-0.375,,,,,
1_S9,10/05/2023,13:55:12.200,0.813,0.250,-0.313,,,,,
1_S9,10/05/2023,13:55:12.300,0.813,0.250,-0.375,,,,,
1_S9,10/05/2023,13:55:12.400,0.875,0.313,-0.438,,,,,
1_S9,10/05/2023,13:55:12.500,0.750,0.313,-0.500,-105.0,-721.5,903.0,,
1_S9,10/05/2023,13:55:12.600,0.750,0.250,-0.500,,,,,
1_S9,10/05/2023,13:55:12.700,0.625,0.313,-0.688,,,,,
1_S9,10/05/2023,13:55:12.800,0.563,0.375,-0.750,,,,,
1_S9,10/05/2023,13:55:12.900,0.500,0.375,-0.813,,,,,
1_S9,10/05/2023,13:55:13.000,0.438,0.438,-0.875,70.5,-726.0,982.5,,
1_S9,10/05/2023,13:55:13.100,0.375,0.375,-0.875,,,,,
1_S9,10/05/2023,13:55:13.200,0.250,0.313,-0.938,,,,,
1_S9,10/05/2023,13:55:13.300,0.125,0.250,-1.000,,,,,
1_S9,10/05/2023,13:55:13.400,0.125,0.250,-0.938,,,,,
1_S9,10/05/2023,13:55:13.500,0.063,0.250,-1.000,264.0,-648.0,958.5,,
1_S9,10/05/2023,13:55:13.600,-0.063,0.250,-1.000,,,,,
1_S9,10/05/2023,13:55:13.700,-0.188,0.250,-1.000,,,,,
1_S9,10/05/2023,13:55:13.800,-0.250,0.188,-1.000,,,,,
1_S9,10/05/2023,13:55:13.900,-0.438,0.125,-0.875,,,,,
1_S9,10/05/2023,13:55:14.000,-0.375,0.250,-0.875,321.0,-574.5,798.0,,
1_S9,10/05/2023,13:55:14.100,-0.500,0.250,-0.875,,,,,
1_S9,10/05/2023,13:55:14.200,-0.563,0.188,-0.813,,,,,
1_S9,10/05/2023,13:55:14.300,-0.625,0.250,-0.813,,,,,
1_S9,10/05/2023,13:55:14.400,-0.688,0.313,-0.750,,,,,
1_S9,10/05/2023,13:55:14.500,-0.688,0.313,-0.750,414.0,-724.5,732.0,,
1_S9,10/05/2023,13:55:14.600,-0.875,0.313,-0.688,,,,,
1_S9,10/05/2023,13:55:14.700,-0.813,0.313,-0.500,,,,,
1_S9,10/05/2023,13:55:14.800,-0.750,0.375,-0.500,,,,,
1_S9,10/05/2023,13:55:14.900,-0.813,0.313,-0.500,,,,,
1_S9,10/05/2023,13:55:15.000,-0.813,0.313,-0.375,444.0,-942.0,592.5,,
1_S9,10/05/2023,13:55:15.100,-0.875,0.438,-0.375,,,,,
1_S9,10/05/2023,13:55:15.200,-0.938,0.438,-0.250,,,,,
1_S9,10/05/2023,13:55:15.300,-0.938,0.438,-0.250,,,,,
1_S9,10/05/2023,13:55:15.400,-0.938,0.438,-0.188,,,,,
1_S9,10/05/2023,13:55:15.500,-0.938,0.438,-0.125,480.0,-759.0,435.0,,
1_S9,10/05/2023,13:55:15.600,-0.938,0.375,-0.063,,,,,
1_S9,10/05/2023,13:55:15.700,-1.000,0.375,0.000,,,,,
1_S9,10/05/2023,13:55:15.800,-1.000,0.375,0.188,,,,,
1_S9,10/05/2023,13:55:15.900,-0.938,0.313,0.313,,,,,
1_S9,10/05/2023,13:55:16.000,-0.938,0.438,0.313,466.5,-577.5,238.5,,
1_S9,10/05/2023,13:55:16.100,-0.863,0.306,0.456,,,,,
1_S9,10/05/2023,13:55:16.200,-0.775,0.238,0.600,,,,,
1_S9,10/05/2023,13:55:16.300,-0.819,0.225,0.575,,,,,
1_S9,10/05/2023,13:55:16.400,-0.613,0.288,0.800,,,,,
1_S9,10/05/2023,13:55:16.500,-0.438,0.156,0.907,289.5,-448.5,154.5,,
1_S9,10/05/2023,13:55:16.600,-0.263,-0.013,0.900,,,,,
1_S9,10/05/2023,13:55:16.700,-0.100,-0.019,0.963,,,,,
1_S9,10/05/2023,13:55:16.800,-0.013,-0.100,1.000,,,,,
1_S9,10/05/2023,13:55:16.900,0.125,-0.125,0.875,,,,,
1_S9,10/05/2023,13:55:17.000,0.125,-0.063,0.750,112.5,-310.5,181.5,23,
1_S9,10/05/2023,13:55:17.100,0.188,0.313,1.125,,,,,
1_S9,10/05/2023,13:55:17.200,0.188,0.063,0.875,,,,,
1_S9,10/05/2023,13:55:17.300,0.125,0.188,1.000,,,,,
1_S9,10/05/2023,13:55:17.400,0.250,0.125,1.000,,,,,
1_S9,10/05/2023,13:55:17.500,0.188,0.188,0.938,4.5,-448.5,129.0,,
1_S9,10/05/2023,13:55:17.600,0.438,0.500,1.250,,,,,
1_S9,10/05/2023,13:55:17.700,0.250,0.250,0.875,,,,,
1_S9,10/05/2023,13:55:17.800,0.188,0.188,1.000,,,,,
1_S9,10/05/2023,13:55:17.900,0.125,0.250,0.938,,,,,
1_S9,10/05/2023,13:55:18.000,0.125,0.250,1.000,22.5,-456.0,141.0,,
1_S9,10/05/2023,13:55:18.100,0.125,0.250,0.938,,,,,
1_S9,10/05/2023,13:55:18.200,0.000,0.250,1.000,,,,,
1_S9,10/05/2023,13:55:18.300,0.000,0.250,0.938,,,,,
1_S9,10/05/2023,13:55:18.400,0.063,0.125,0.938,,,,,
1_S9,10/05/2023,13:55:18.500,0.125,-0.063,1.063,123.0,-396.0,238.5,,
1_S9,10/05/2023,13:55:18.600,0.000,-0.125,1.000,,,,,
1_S9,10/05/2023,13:55:18.700,0.000,-0.125,1.000,,,,,
1_S9,10/05/2023,13:55:18.800,0.000,-0.063,1.000,,,,,
1_S9,10/05/2023,13:55:18.900,0.000,-0.063,1.063,,,,,
1_S9,10/05/2023,13:55:19.000,-0.063,-0.125,1.000,16618.5,8071.5,-22230.0,,
1_S9,10/05/2023,13:55:19.100,0.313,0.000,0.875,,,,,
1_S9,10/05/2023,13:55:19.200,0.063,-0.125,1.000,,,,,
1_S9,10/05/2023,13:55:19.300,0.063,-0.063,1.000,,,,,
1_S9,10/05/2023,13:55:19.400,0.063,-0.063,0.938,,,,,
1_S9,10/05/2023,13:55:19.500,0.063,-0.063,0.938,3595.5,-697.5,-252.0,,
1_S9,10/05/2023,13:55:19.600,0.063,0.000,1.000,,,,,
1_S9,10/05/2023,13:55:19.700,0.063,-0.063,1.000,,,,,
1_S9,10/05/2023,13:55:19.800,0.063,-0.063,0.938,,,,,
1_S9,10/05/2023,13:55:19.900,0.063,0.000,1.000,,,,,
1_S9,10/05/2023,13:55:20.000,0.063,0.000,1.000,3741.0,-697.5,-184.5,,
1_S9,10/05/2023,13:55:20.100,0.125,0.000,1.000,,,,,
1_S9,10/05/2023,13:55:20.200,0.063,0.000,1.000,,,,,
1_S9,10/05/2023,13:55:20.300,0.063,0.000,0.938,,,,,
1_S9,10/05/2023,13:55:20.400,0.063,0.000,1.000,,,,,
1_S9,10/05/2023,13:55:20.500,0.125,0.063,1.000,3861.0,-685.5,-117.0,,
1_S9,10/05/2023,13:55:20.600,0.063,-0.063,1.000,,,,,
1_S9,10/05/2023,13:55:20.700,0.125,-0.063,1.000,,,,,
1_S9,10/05/2023,13:55:20.800,-0.188,0.563,1.751,,,,,
1_S9,10/05/2023,13:55:20.900,0.000,-0.125,0.938,,,,,
1_S9,10/05/2023,13:55:21.000,0.000,0.000,1.063,-348.0,-279.0,-829.5,,
1_S9,10/05/2023,13:55:21.100,0.000,-0.063,1.000,,,,,
1_S9,10/05/2023,13:55:21.200,0.000,-0.063,1.000,,,,,
1_S9,10/05/2023,13:55:21.300,0.000,-0.063,1.000,,,,,
1_S9,10/05/2023,13:55:21.400,-0.025,-0.063,1.025,,,,,
1_S9,10/05/2023,13:55:21.500,-0.031,-0.094,1.000,-337.5,-174.0,-979.5,,
1_S9,10/05/2023,13:55:21.600,0.000,-0.050,0.938,,,,,
1_S9,10/05/2023,13:55:21.700,0.000,-0.044,0.982,,,,,
1_S9,10/05/2023,13:55:21.800,0.000,-0.113,1.000,,,,,
1_S9,10/05/2023,13:55:21.900,0.000,-0.125,1.000,,,,,
1_S9,10/05/2023,13:55:21.000,0.000,0.000,0.000,,,,23,Power off command received.
