TagID;Date;Time;accX;accY;accZ;magX;magY;magZ;Temp. (?C);Metadata
3_S5_S6;05/05/2023;10:23:06;688;-688;0;-6420;4770;-9495;18;
3_S5_S6;05/05/2023;10:23:06;688;-688;-56;;;;;
3_S5_S6;05/05/2023;10:23:06;638;-788;-13;;;;;
3_S5_S6;05/05/2023;10:23:06;581;-769;44;;;;;
3_S5_S6;05/05/2023;10:23:06;525;-788;63;;;;;
3_S5_S6;05/05/2023;10:23:06;500;-813;63;-5550;5340;-9510;;
3_S5_S6;05/05/2023;10:23:07;450;-838;63;;;;;
3_S5_S6;05/05/2023;10:23:07;375;-875;63;;;;;
3_S5_S6;05/05/2023;10:23:07;363;-888;63;;;;;
3_S5_S6;05/05/2023;10:23:07;313;-938;63;;;;;
3_S5_S6;05/05/2023;10:23:07;250;-938;63;-4290;5730;-9600;;
3_S5_S6;05/05/2023;10:23:07;188;-938;0;;;;;
3_S5_S6;05/05/2023;10:23:07;188;-938;0;;;;;
3_S5_S6;05/05/2023;10:23:07;125;-938;0;;;;;
3_S5_S6;05/05/2023;10:23:07;63;-1000;-63;;;;;
3_S5_S6;05/05/2023;10:23:07;0;-1000;-125;-2730;5745;-9435;;
3_S5_S6;05/05/2023;10:23:08;-63;-1000;0;;;;;
3_S5_S6;05/05/2023;10:23:08;-188;-1000;-63;;;;;
3_S5_S6;05/05/2023;10:23:08;-250;-938;-125;;;;;
3_S5_S6;05/05/2023;10:23:08;-375;-938;-125;;;;;
3_S5_S6;05/05/2023;10:23:08;-500;-875;-125;-1005;5445;-8970;;
3_S5_S6;05/05/2023;10:23:08;-625;-813;-125;;;;;
3_S5_S6;05/05/2023;10:23:08;-688;-688;-188;;;;;
3_S5_S6;05/05/2023;10:23:08;-813;-625;-188;;;;;
3_S5_S6;05/05/2023;10:23:08;-938;-625;-125;;;;;
3_S5_S6;05/05/2023;10:23:08;-938;-500;-188;780;3615;-8925;;
3_S5_S6;05/05/2023;10:23:09;-938;-375;-125;;;;;
3_S5_S6;05/05/2023;10:23:09;-938;-438;-125;;;;;
3_S5_S6;05/05/2023;10:23:09;-938;-375;-125;;;;;
3_S5_S6;05/05/2023;10:23:09;-1000;-375;-125;;;;;
3_S5_S6;05/05/2023;10:23:09;-1000;-313;-125;1500;2310;-9255;;
3_S5_S6;05/05/2023;10:23:09;-1000;-313;-125;;;;;
3_S5_S6;05/05/2023;10:23:09;-1000;-188;-125;;;;;
3_S5_S6;05/05/2023;10:23:09;-1000;-125;-125;;;;;
3_S5_S6;05/05/2023;10:23:09;-1063;-63;-63;;;;;
3_S5_S6;05/05/2023;10:23:09;-1063;-63;-125;1530;1095;-9360;;
3_S5_S6;05/05/2023;10:23:10;-1063;63;-125;;;;;
3_S5_S6;05/05/2023;10:23:10;-1000;63;-63;;;;;
3_S5_S6;05/05/2023;10:23:10;-1000;125;-63;;;;;
3_S5_S6;05/05/2023;10:23:10;-1000;188;-125;;;;;
3_S5_S6;05/05/2023;10:23:10;-1000;188;0;1050;-135;-9870;;
3_S5_S6;05/05/2023;10:23:10;-1000;244;0;;;;;
3_S5_S6;05/05/2023;10:23:10;-950;300;0;;;;;
3_S5_S6;05/05/2023;10:23:10;-938;400;44;;;;;
3_S5_S6;05/05/2023;10:23:10;-938;475;25;;;;;
3_S5_S6;05/05/2023;10:23:10;-907;531;31;270;-1500;-9930;;
3_S5_S6;05/05/2023;10:23:11;-850;588;63;;;;;
3_S5_S6;05/05/2023;10:23:11;-794;644;63;;;;;
3_S5_S6;05/05/2023;10:23:11;-738;688;63;;;;;
3_S5_S6;05/05/2023;10:23:11;-688;688;63;;;;;
3_S5_S6;05/05/2023;10:23:11;-688;813;63;-1050;-2430;-10230;18;
3_S5_S6;05/05/2023;10:23:11;-625;813;63;;;;;
3_S5_S6;05/05/2023;10:23:11;-563;813;63;;;;;
3_S5_S6;05/05/2023;10:23:11;-563;813;125;;;;;
3_S5_S6;05/05/2023;10:23:11;-500;875;63;;;;;
3_S5_S6;05/05/2023;10:23:12;-500;875;63;-1845;-2865;-10065;;
3_S5_S6;05/05/2023;10:23:12;-438;938;63;;;;;
3_S5_S6;05/05/2023;10:23:12;-375;938;-63;;;;;
3_S5_S6;05/05/2023;10:23:12;-250;938;-63;;;;;
3_S5_S6;05/05/2023;10:23:12;-188;1000;-63;;;;;
3_S5_S6;05/05/2023;10:23:12;-188;938;0;-3225;-3060;-9855;;
3_S5_S6;05/05/2023;10:23:12;-63;1000;-63;;;;;
3_S5_S6;05/05/2023;10:23:12;0;1000;-63;;;;;
3_S5_S6;05/05/2023;10:23:12;125;938;-125;;;;;
3_S5_S6;05/05/2023;10:23:12;188;875;-125;;;;;
3_S5_S6;05/05/2023;10:23:13;313;875;-188;-5550;-2745;-9270;;
3_S5_S6;05/05/2023;10:23:13;375;875;-125;;;;;
3_S5_S6;05/05/2023;10:23:13;500;813;-188;;;;;
3_S5_S6;05/05/2023;10:23:13;625;813;-125;;;;;
3_S5_S6;05/05/2023;10:23:13;750;688;-125;;;;;
3_S5_S6;05/05/2023;10:23:13;750;563;-125;-7545;-840;-9105;;
3_S5_S6;05/05/2023;10:23:13;813;563;-188;;;;;
3_S5_S6;05/05/2023;10:23:13;813;500;-188;;;;;
3_S5_S6;05/05/2023;10:23:13;875;375;-188;;;;;
3_S5_S6;05/05/2023;10:23:13;813;375;-125;;;;;
3_S5_S6;05/05/2023;10:23:13;875;438;-125;-8010;255;-8790;;
3_S5_S6;05/05/2023;10:23:14;875;313;-188;;;;;
3_S5_S6;05/05/2023;10:23:14;938;375;-125;;;;;
3_S5_S6;05/05/2023;10:23:14;1000;313;-125;;;;;
3_S5_S6;05/05/2023;10:23:14;1000;313;-125;;;;;
3_S5_S6;05/05/2023;10:23:14;938;188;-125;-7935;855;-9210;;
3_S5_S6;05/05/2023;10:23:14;994;131;-125;;;;;
3_S5_S6;05/05/2023;10:23:14;950;75;-125;;;;;
3_S5_S6;05/05/2023;10:23:14;982;-25;-125;;;;;
3_S5_S6;05/05/2023;10:23:14;963;-100;-125;;;;;
3_S5_S6;05/05/2023;10:23:14;1000;-125;-125;-7995;2490;-9225;;
3_S5_S6;05/05/2023;10:23:15;1013;-150;-125;;;;;
3_S5_S6;05/05/2023;10:23:15;957;-225;-125;;;;;
3_S5_S6;05/05/2023;10:23:15;988;-313;-125;;;;;
3_S5_S6;05/05/2023;10:23:15;938;-313;-125;;;;;
3_S5_S6;05/05/2023;10:23:15;875;-438;-125;-7305;3750;-9180;;
3_S5_S6;05/05/2023;10:23:15;813;-438;-125;;;;;
3_S5_S6;05/05/2023;10:23:15;813;-500;-125;;;;;
3_S5_S6;05/05/2023;10:23:15;750;-563;0;;;;;
3_S5_S6;05/05/2023;10:23:15;813;-625;0;;;;;
3_S5_S6;05/05/2023;10:23:16;688;-688;0;-6420;4905;-9420;;
3_S5_S6;05/05/2023;10:23:16;625;-750;0;;;;;
3_S5_S6;05/05/2023;10:23:16;563;-813;63;;;;;
3_S5_S6;05/05/2023;10:23:16;500;-875;0;;;;;
3_S5_S6;05/05/2023;10:23:16;500;-875;63;;;;;
3_S5_S6;05/05/2023;10:23:16;438;-938;63;-5205;5505;-9750;18;
3_S5_S6;05/05/2023;10:23:16;438;-875;63;;;;;
3_S5_S6;05/05/2023;10:23:16;375;-938;0;;;;;
3_S5_S6;05/05/2023;10:23:16;313;-938;63;;;;;
3_S5_S6;05/05/2023;10:23:16;375;-938;63;;;;;
3_S5_S6;05/05/2023;10:23:16;250;-938;0;-4140;5895;-9450;;
3_S5_S6;05/05/2023;10:23:17;188;-938;63;;;;;
3_S5_S6;05/05/2023;10:23:17;188;-938;-63;;;;;
3_S5_S6;05/05/2023;10:23:17;125;-938;0;;;;;
3_S5_S6;05/05/2023;10:23:17;0;-1000;-63;;;;;
3_S5_S6;05/05/2023;10:23:17;-63;-1063;-63;-2925;5715;-9315;;
3_S5_S6;05/05/2023;10:23:17;-188;-1000;-125;;;;;
3_S5_S6;05/05/2023;10:23:17;-313;-938;-125;;;;;
3_S5_S6;05/05/2023;10:23:17;-375;-875;-125;;;;;
3_S5_S6;05/05/2023;10:23:17;-500;-813;-125;;;;;
3_S5_S6;05/05/2023;10:23:18;-625;-813;-125;-510;5040;-8985;;
3_S5_S6;05/05/2023;10:23:18;-688;-750;-125;;;;;
3_S5_S6;05/05/2023;10:23:18;-813;-750;-125;;;;;
3_S5_S6;05/05/2023;10:23:18;-813;-625;-125;;;;;
3_S5_S6;05/05/2023;10:23:18;-813;-625;-125;;;;;
3_S5_S6;05/05/2023;10:23:18;-750;-563;-125;750;3810;-9120;;
3_S5_S6;05/05/2023;10:23:18;-863;-563;-125;;;;;
3_S5_S6;05/05/2023;10:23:18;-875;-563;-125;;;;;
3_S5_S6;05/05/2023;10:23:18;-919;-519;-125;;;;;
3_S5_S6;05/05/2023;10:23:18;-938;-500;-125;;;;;
3_S5_S6;05/05/2023;10:23:18;-938;-500;-125;1065;2895;-9090;;
3_S5_S6;05/05/2023;10:23:19;-938;-475;-125;;;;;
3_S5_S6;05/05/2023;10:23:19;-938;-438;-125;;;;;
3_S5_S6;05/05/2023;10:23:19;-950;-425;-125;;;;;
3_S5_S6;05/05/2023;10:23:19;-1000;-375;-125;;;;;
3_S5_S6;05/05/2023;10:23:19;-1000;-313;-125;1245;2115;-9270;;
3_S5_S6;05/05/2023;10:23:19;-1000;-313;-125;;;;;
3_S5_S6;05/05/2023;10:23:19;-1000;-250;-63;;;;;
3_S5_S6;05/05/2023;10:23:19;-1000;-250;-63;;;;;
3_S5_S6;05/05/2023;10:23:19;-1063;-125;-63;;;;;
3_S5_S6;05/05/2023;10:23:20;-1000;-125;0;1380;1365;-9360;;
3_S5_S6;05/05/2023;10:23:20;-1000;-63;-63;;;;;
3_S5_S6;05/05/2023;10:23:20;-1063;-63;-63;;;;;
3_S5_S6;05/05/2023;10:23:20;-1000;0;-63;;;;;
3_S5_S6;05/05/2023;10:23:20;-1000;0;63;;;;;
3_S5_S6;05/05/2023;10:23:20;-1000;125;0;1305;255;-9585;;
3_S5_S6;05/05/2023;10:23:20;-1000;188;0;;;;;
3_S5_S6;05/05/2023;10:23:20;-1000;313;63;;;;;
3_S5_S6;05/05/2023;10:23:20;-1000;375;63;;;;;
3_S5_S6;05/05/2023;10:23:20;-938;438;63;;;;;
3_S5_S6;05/05/2023;10:23:20;-938;438;63;315;-1095;-10020;;
3_S5_S6;05/05/2023;10:23:21;-875;500;63;;;;;
3_S5_S6;05/05/2023;10:23:21;-875;563;125;;;;;
3_S5_S6;05/05/2023;10:23:21;-875;563;63;;;;;
3_S5_S6;05/05/2023;10:23:21;-875;625;63;;;;;
3_S5_S6;05/05/2023;10:23:21;-813;688;63;-240;-1680;-10170;18;
3_S5_S6;05/05/2023;10:23:21;-750;688;63;;;;;
3_S5_S6;05/05/2023;10:23:21;-750;688;63;;;;;
3_S5_S6;05/05/2023;10:23:21;-688;750;125;;;;;
3_S5_S6;05/05/2023;10:23:21;-625;813;125;;;;;
3_S5_S6;05/05/2023;10:23:21;-563;813;125;-1320;-2220;-10185;;
3_S5_S6;05/05/2023;10:23:22;-563;938;63;;;;;
3_S5_S6;05/05/2023;10:23:22;-438;875;63;;;;;
3_S5_S6;05/05/2023;10:23:22;-438;1000;63;;;;;
3_S5_S6;05/05/2023;10:23:22;-250;938;0;;;;;
3_S5_S6;05/05/2023;10:23:22;-188;1000;-125;-2850;-3015;-9900;;
3_S5_S6;05/05/2023;10:23:22;-75;1000;-125;;;;;
3_S5_S6;05/05/2023;10:23:22;38;950;-125;;;;;
3_S5_S6;05/05/2023;10:23:22;150;982;-125;;;;;
3_S5_S6;05/05/2023;10:23:22;263;963;-125;;;;;
3_S5_S6;05/05/2023;10:23:22;375;907;-125;-5565;-2655;-9360;;
3_S5_S6;05/05/2023;10:23:23;488;875;-125;;;;;
3_S5_S6;05/05/2023;10:23:23;581;838;-125;;;;;
3_S5_S6;05/05/2023;10:23:23;625;750;-125;;;;;
3_S5_S6;05/05/2023;10:23:23;625;750;-125;;;;;
3_S5_S6;05/05/2023;10:23:23;688;688;-188;-7230;-1245;-9090;;
3_S5_S6;05/05/2023;10:23:23;688;625;-125;;;;;
3_S5_S6;05/05/2023;10:23:23;750;625;-125;;;;;
3_S5_S6;05/05/2023;10:23:23;750;625;-125;;;;;
3_S5_S6;05/05/2023;10:23:23;813;563;-125;;;;;
3_S5_S6;05/05/2023;10:23:24;875;563;-125;-7545;-330;-9105;;
3_S5_S6;05/05/2023;10:23:24;813;563;-125;;;;;
3_S5_S6;05/05/2023;10:23:24;875;500;-125;;;;;
3_S5_S6;05/05/2023;10:23:24;875;500;-125;;;;;
3_S5_S6;05/05/2023;10:23:24;875;438;-125;;;;;
3_S5_S6;05/05/2023;10:23:24;875;438;-125;-7860;45;-9105;;
3_S5_S6;05/05/2023;10:23:24;875;375;-125;;;;;
3_S5_S6;05/05/2023;10:23:24;875;313;-125;;;;;
3_S5_S6;05/05/2023;10:23:24;938;188;-125;;;;;
3_S5_S6;05/05/2023;10:23:24;1000;188;-125;;;;;
3_S5_S6;05/05/2023;10:23:24;1000;63;-125;-8055;1575;-9210;;
3_S5_S6;05/05/2023;10:23:25;938;63;-63;;;;;
3_S5_S6;05/05/2023;10:23:25;1000;0;-125;;;;;
3_S5_S6;05/05/2023;10:23:25;1000;0;-125;;;;;
3_S5_S6;05/05/2023;10:23:25;1000;-63;-63;;;;;
3_S5_S6;05/05/2023;10:23:25;1000;-125;-63;-7845;2790;-9405;;
3_S5_S6;05/05/2023;10:23:25;938;-188;-125;;;;;
3_S5_S6;05/05/2023;10:23:25;938;-250;-63;;;;;
3_S5_S6;05/05/2023;10:23:25;938;-313;0;;;;;
3_S5_S6;05/05/2023;10:23:25;938;-313;0;;;;;
3_S5_S6;05/05/2023;10:23:25;938;-375;63;-7410;3675;-9435;;
3_S5_S6;05/05/2023;10:23:26;875;-438;0;;;;;
3_S5_S6;05/05/2023;10:23:26;875;-438;0;;;;;
3_S5_S6;05/05/2023;10:23:26;813;-438;63;;;;;
3_S5_S6;05/05/2023;10:23:26;875;-500;-125;;;;;
3_S5_S6;05/05/2023;10:23:26;875;-500;0;-6945;4215;-9360;18;
3_S5_S6;05/05/2023;10:23:26;819;-444;0;;;;;
3_S5_S6;05/05/2023;10:23:26;913;-488;50;;;;;
3_S5_S6;05/05/2023;10:23:26;807;-544;-25;;;;;
3_S5_S6;05/05/2023;10:23:26;713;-675;-100;;;;;
3_S5_S6;05/05/2023;10:23:26;688;-750;-125;-6285;4920;-9225;;
3_S5_S6;05/05/2023;10:23:27;638;-775;-125;;;;;
3_S5_S6;05/05/2023;10:23:27;525;-813;-125;;;;;
3_S5_S6;05/05/2023;10:23:27;425;-825;-125;;;;;
3_S5_S6;05/05/2023;10:23:27;375;-875;-125;;;;;
3_S5_S6;05/05/2023;10:23:27;313;-938;-125;-4605;5745;-8985;;
3_S5_S6;05/05/2023;10:23:27;188;-1000;-125;;;;;
3_S5_S6;05/05/2023;10:23:27;0;-1063;-125;;;;;
3_S5_S6;05/05/2023;10:23:27;0;-1000;-125;;;;;
3_S5_S6;05/05/2023;10:23:27;-63;-1000;-125;;;;;
3_S5_S6;05/05/2023;10:23:27;-125;-1063;-125;-2445;5940;-9105;;
3_S5_S6;05/05/2023;10:23:28;-188;-1000;-63;;;;;
3_S5_S6;05/05/2023;10:23:28;-313;-938;-63;;;;;
3_S5_S6;05/05/2023;10:23:28;-375;-938;-63;;;;;
3_S5_S6;05/05/2023;10:23:28;-438;-875;-63;;;;;
3_S5_S6;05/05/2023;10:23:28;-563;-875;-125;-555;5235;-9180;;
3_S5_S6;05/05/2023;10:23:28;-688;-813;-125;;;;;
3_S5_S6;05/05/2023;10:23:28;-750;-750;-125;;;;;
3_S5_S6;05/05/2023;10:23:28;-813;-625;-125;;;;;
3_S5_S6;05/05/2023;10:23:28;-875;-563;-125;;;;;
3_S5_S6;05/05/2023;10:23:28;-875;-563;-125;750;3405;-9165;;
3_S5_S6;05/05/2023;10:23:29;-875;-438;-125;;;;;
3_S5_S6;05/05/2023;10:23:29;-1000;-500;-125;;;;;
3_S5_S6;05/05/2023;10:23:29;-938;-500;-63;;;;;
3_S5_S6;05/05/2023;10:23:29;-875;-438;-125;;;;;
3_S5_S6;05/05/2023;10:23:29;-1000;-438;-125;1320;2610;-9345;;
3_S5_S6;05/05/2023;10:23:29;-875;-438;-63;;;;;
3_S5_S6;05/05/2023;10:23:29;-1000;-250;-63;;;;;
3_S5_S6;05/05/2023;10:23:29;-1000;-250;0;;;;;
3_S5_S6;05/05/2023;10:23:29;-1000;-250;0;;;;;
3_S5_S6;05/05/2023;10:23:29;-1000;-125;0;1215;1425;-9615;;
3_S5_S6;05/05/2023;10:23:30;-1063;-125;63;;;;;
3_S5_S6;05/05/2023;10:23:30;-1063;0;63;;;;;
3_S5_S6;05/05/2023;10:23:30;-1063;125;63;;;;;
3_S5_S6;05/05/2023;10:23:30;-1063;188;63;;;;;
3_S5_S6;05/05/2023;10:23:30;-1000;313;125;885;-165;-9930;;
3_S5_S6;05/05/2023;10:23:30;-944;369;125;;;;;
3_S5_S6;05/05/2023;10:23:30;-988;425;125;;;;;
3_S5_S6;05/05/2023;10:23:30;-913;525;81;;;;;
3_S5_S6;05/05/2023;10:23:30;-838;563;100;;;;;
3_S5_S6;05/05/2023;10:23:30;-813;594;125;-435;-1695;-10245;;
3_S5_S6;05/05/2023;10:23:31;-788;650;100;;;;;
3_S5_S6;05/05/2023;10:23:31;-750;725;63;;;;;
3_S5_S6;05/05/2023;10:23:31;-725;800;75;;;;;
3_S5_S6;05/05/2023;10:23:31;-625;750;125;;;;;
3_S5_S6;05/05/2023;10:23:31;-563;875;125;-1545;-2505;-10395;18;
3_S5_S6;05/05/2023;10:23:31;-438;875;63;;;;;
3_S5_S6;05/05/2023;10:23:31;-375;938;125;;;;;
3_S5_S6;05/05/2023;10:23:31;-375;938;63;;;;;
3_S5_S6;05/05/2023;10:23:31;-313;938;125;;;;;
3_S5_S6;05/05/2023;10:23:32;-250;1000;63;-3195;-2910;-10185;;
3_S5_S6;05/05/2023;10:23:32;-125;1000;63;;;;;
3_S5_S6;05/05/2023;10:23:32;-125;938;125;;;;;
3_S5_S6;05/05/2023;10:23:32;0;1000;63;;;;;
3_S5_S6;05/05/2023;10:23:32;63;938;-63;;;;;
3_S5_S6;05/05/2023;10:23:32;125;1000;0;-4950;-2805;-9630;;
3_S5_S6;05/05/2023;10:23:32;250;938;-63;;;;;
3_S5_S6;05/05/2023;10:23:32;375;938;-125;;;;;
3_S5_S6;05/05/2023;10:23:32;375;938;-125;;;;;
3_S5_S6;05/05/2023;10:23:32;438;938;-125;;;;;
3_S5_S6;05/05/2023;10:23:32;438;875;-125;-6300;-2100;-9105;;
3_S5_S6;05/05/2023;10:23:33;500;875;-188;;;;;
3_S5_S6;05/05/2023;10:23:33;500;813;-188;;;;;
3_S5_S6;05/05/2023;10:23:33;500;750;-125;;;;;
3_S5_S6;05/05/2023;10:23:33;625;813;-188;;;;;
3_S5_S6;05/05/2023;10:23:33;625;625;-188;-7290;-1350;-8955;;
3_S5_S6;05/05/2023;10:23:33;750;625;-125;;;;;
3_S5_S6;05/05/2023;10:23:33;813;500;-125;;;;;
3_S5_S6;05/05/2023;10:23:33;813;375;-125;;;;;
3_S5_S6;05/05/2023;10:23:33;938;375;-125;;;;;
3_S5_S6;05/05/2023;10:23:33;938;250;0;-7845;375;-9465;;
3_S5_S6;05/05/2023;10:23:34;938;188;0;;;;;
3_S5_S6;05/05/2023;10:23:34;1000;188;-63;;;;;
3_S5_S6;05/05/2023;10:23:34;1000;125;0;;;;;
3_S5_S6;05/05/2023;10:23:34;938;125;0;;;;;
3_S5_S6;05/05/2023;10:23:34;938;188;-125;-7980;1230;-9195;;
3_S5_S6;05/05/2023;10:23:34;938;131;-125;;;;;
3_S5_S6;05/05/2023;10:23:34;938;125;-75;;;;;
3_S5_S6;05/05/2023;10:23:34;938;169;25;;;;;
3_S5_S6;05/05/2023;10:23:34;938;188;63;;;;;
3_S5_S6;05/05/2023;10:23:35;938;188;63;-13575;2820;2550;;
3_S5_S6;05/05/2023;10:23:35;963;188;88;;;;;
3_S5_S6;05/05/2023;10:23:35;982;206;106;;;;;
3_S5_S6;05/05/2023;10:23:35;938;250;75;;;;;
3_S5_S6;05/05/2023;10:23:35;938;250;125;;;;;
3_S5_S6;05/05/2023;10:23:35;938;313;125;-50235;57990;-212955;;
3_S5_S6;05/05/2023;10:23:35;938;313;125;;;;;
3_S5_S6;05/05/2023;10:23:35;875;250;125;;;;;
3_S5_S6;05/05/2023;10:23:35;938;313;125;;;;;
3_S5_S6;05/05/2023;10:23:35;938;313;125;;;;;
3_S5_S6;05/05/2023;10:23:35;875;313;188;79080;-114525;-483720;;
3_S5_S6;05/05/2023;10:23:36;938;313;188;;;;;
3_S5_S6;05/05/2023;10:23:36;875;313;188;;;;;
3_S5_S6;05/05/2023;10:23:36;875;375;188;;;;;
3_S5_S6;05/05/2023;10:23:36;1063;688;313;;;;;
3_S5_S6;05/05/2023;10:23:36;938;438;188;74895;-13455;7455;18;
3_S5_S6;05/05/2023;10:23:36;875;438;188;;;;;
3_S5_S6;05/05/2023;10:23:36;813;438;188;;;;;
3_S5_S6;05/05/2023;10:23:36;875;438;188;;;;;
3_S5_S6;05/05/2023;10:23:36;875;438;188;;;;;
3_S5_S6;05/05/2023;10:23:37;875;438;188;43335;-13275;-17175;;
3_S5_S6;05/05/2023;10:23:37;875;438;125;;;;;
3_S5_S6;05/05/2023;10:23:37;875;438;188;;;;;
3_S5_S6;05/05/2023;10:23:37;875;500;125;;;;;
3_S5_S6;05/05/2023;10:23:37;875;438;188;;;;;
3_S5_S6;05/05/2023;10:23:37;875;438;125;44610;-12675;-14760;;
3_S5_S6;05/05/2023;10:23:37;875;500;188;;;;;
3_S5_S6;05/05/2023;10:23:37;750;438;125;;;;;
3_S5_S6;05/05/2023;10:23:37;1000;375;188;;;;;
3_S5_S6;05/05/2023;10:23:37;813;438;188;;;;;
3_S5_S6;05/05/2023;10:23:37;875;375;125;-6915;-60;-15960;;
3_S5_S6;05/05/2023;10:23:38;938;438;125;;;;;
3_S5_S6;05/05/2023;10:23:38;875;375;188;;;;;
3_S5_S6;05/05/2023;10:23:38;875;438;188;;;;;
3_S5_S6;05/05/2023;10:23:38;938;375;188;;;;;
3_S5_S6;05/05/2023;10:23:37;0;0;0;;;;18;Power off command received.
