TagID,Date,Time,accX,accY,accZ,magX,magY,magZ,Temp. (?C),Metadata
3_S8,09/05/2023,10:20:27.000,-0.063,-0.063,0.938,-409.5,-415.5,-1470.0,21,
3_S8,09/05/2023,10:20:27.100,-0.063,-0.119,0.994,,,,,
3_S8,09/05/2023,10:20:27.200,-0.013,-0.025,0.950,,,,,
3_S8,09/05/2023,10:20:27.300,-0.044,-0.044,0.982,,,,,
3_S8,09/05/2023,10:20:27.400,-0.025,-0.063,1.000,,,,,
3_S8,09/05/2023,10:20:27.500,0.000,-0.063,1.000,-396.0,-409.5,-1465.5,,
3_S8,09/05/2023,10:20:27.600,-0.025,-0.063,1.000,,,,,
3_S8,09/05/2023,10:20:27.700,-0.063,-0.063,0.982,,,,,
3_S8,09/05/2023,10:20:27.800,-0.063,-0.063,0.938,,,,,
3_S8,09/05/2023,10:20:27.900,-0.063,-0.063,0.938,,,,,
3_S8,09/05/2023,10:20:28.000,-0.063,-0.063,0.938,-409.5,-405.0,-1455.0,,
3_S8,09/05/2023,10:20:28.100,-0.063,-0.063,1.000,,,,,
3_S8,09/05/2023,10:20:28.200,-0.063,-0.063,0.938,,,,,
3_S8,09/05/2023,10:20:28.300,0.000,-0.063,0.938,,,,,
3_S8,09/05/2023,10:20:28.400,0.000,-0.063,0.938,,,,,
3_S8,09/05/2023,10:20:28.500,-0.063,-0.125,0.938,-396.0,-409.5,-1447.5,,
3_S8,09/05/2023,10:20:28.600,-0.063,-0.063,0.938,,,,,
3_S8,09/05/2023,10:20:28.700,-0.063,-0.063,0.938,,,,,
3_S8,09/05/2023,10:20:28.800,-0.063,-0.063,0.938,,,,,
3_S8,09/05/2023,10:20:28.900,-0.063,-0.063,1.000,,,,,
3_S8,09/05/2023,10:20:29.000,-0.063,-0.063,0.938,-385.5,-415.5,-1455.0,,
3_S8,09/05/2023,10:20:29.100,0.000,-0.063,0.938,,,,,
3_S8,09/05/2023,10:20:29.200,-0.063,-0.063,0.938,,,,,
3_S8,09/05/2023,10:20:29.300,0.000,-0.125,1.000,,,,,
3_S8,09/05/2023,10:20:29.400,0.000,-0.063,0.938,,,,,
3_S8,09/05/2023,10:20:29.500,-0.063,-0.063,1.000,-379.5,-415.5,-1431.0,,
3_S8,09/05/2023,10:20:29.600,-0.063,-0.063,1.000,,,,,
3_S8,09/05/2023,10:20:29.700,-0.063,-0.063,0.938,,,,,
3_S8,09/05/2023,10:20:29.800,-0.063,-0.063,1.000,,,,,
3_S8,09/05/2023,10:20:29.900,0.000,-0.063,1.000,,,,,
3_S8,09/05/2023,10:20:30.000,0.000,-0.063,1.000,-394.5,-426.0,-1437.0,,
3_S8,09/05/2023,10:20:30.100,-0.063,-0.063,0.938,,,,,
3_S8,09/05/2023,10:20:30.200,0.000,-0.125,0.938,,,,,
3_S8,09/05/2023,10:20:30.300,0.000,-0.063,1.000,,,,,
3_S8,09/05/2023,10:20:30.400,-0.063,-0.125,0.938,,,,,
3_S8,09/05/2023,10:20:30.500,0.000,0.000,1.000,-400.5,-409.5,-1440.0,,
3_S8,09/05/2023,10:20:30.600,-0.063,-0.063,1.000,,,,,
3_S8,09/05/2023,10:20:30.700,-0.063,-0.063,1.000,,,,,
3_S8,09/05/2023,10:20:30.800,-0.063,-0.125,1.000,,,,,
3_S8,09/05/2023,10:20:30.900,-0.063,-0.063,1.000,,,,,
3_S8,09/05/2023,10:20:31.000,-0.063,-0.063,1.000,-399.0,-405.0,-1447.5,,
3_S8,09/05/2023,10:20:31.100,-0.063,-0.063,1.000,,,,,
3_S8,09/05/2023,10:20:31.200,-0.063,-0.013,1.000,,,,,
3_S8,09/05/2023,10:20:31.300,-0.106,-0.044,0.957,,,,,
3_S8,09/05/2023,10:20:31.400,-0.050,-0.063,0.975,,,,,
3_S8,09/05/2023,10:20:31.500,0.000,-0.094,0.969,-400.5,-414.0,-1431.0,,
3_S8,09/05/2023,10:20:31.600,-0.025,-0.100,0.963,,,,,
3_S8,09/05/2023,10:20:31.700,-0.063,-0.081,1.000,,,,,
3_S8,09/05/2023,10:20:31.800,-0.063,-0.113,1.000,,,,,
3_S8,09/05/2023,10:20:31.900,-0.063,-0.063,1.000,,,,,
3_S8,09/05/2023,10:20:32.000,0.000,-0.063,1.000,-408.0,-408.0,-1441.5,21,
3_S8,09/05/2023,10:20:32.100,-0.063,-0.125,0.938,,,,,
3_S8,09/05/2023,10:20:32.200,-0.063,-0.063,1.000,,,,,
3_S8,09/05/2023,10:20:32.300,0.000,-0.125,0.938,,,,,
3_S8,09/05/2023,10:20:32.400,-0.063,-0.063,1.000,,,,,
3_S8,09/05/2023,10:20:32.500,-0.063,-0.125,1.000,-378.0,-417.0,-1422.0,,
3_S8,09/05/2023,10:20:32.600,-0.063,-0.063,0.938,,,,,
3_S8,09/05/2023,10:20:32.700,-0.063,-0.125,0.938,,,,,
3_S8,09/05/2023,10:20:32.800,-0.063,-0.063,1.000,,,,,
3_S8,09/05/2023,10:20:32.900,0.000,-0.125,0.938,,,,,
3_S8,09/05/2023,10:20:33.000,-0.063,-0.063,0.938,-388.5,-412.5,-1441.5,,
3_S8,09/05/2023,10:20:33.100,-0.063,-0.125,1.000,,,,,
3_S8,09/05/2023,10:20:33.200,-0.063,-0.125,1.000,,,,,
3_S8,09/05/2023,10:20:33.300,-0.063,-0.063,0.938,,,,,
3_S8,09/05/2023,10:20:33.400,-0.063,-0.063,1.000,,,,,
3_S8,09/05/2023,10:20:33.500,-0.063,-0.063,0.938,-405.0,-423.0,-1443.0,,
3_S8,09/05/2023,10:20:33.600,-0.063,-0.063,0.938,,,,,
3_S8,09/05/2023,10:20:33.700,-0.063,0.000,0.938,,,,,
3_S8,09/05/2023,10:20:33.800,0.000,-0.125,1.000,,,,,
3_S8,09/05/2023,10:20:33.900,0.000,-0.063,0.938,,,,,
3_S8,09/05/2023,10:20:34.000,-0.063,-0.063,0.938,-394.5,-417.0,-1446.0,,
3_S8,09/05/2023,10:20:34.100,-0.063,-0.125,1.000,,,,,
3_S8,09/05/2023,10:20:34.200,0.000,-0.063,0.938,,,,,
3_S8,09/05/2023,10:20:34.300,-0.063,-0.125,1.000,,,,,
3_S8,09/05/2023,10:20:34.400,-0.063,-0.125,1.000,,,,,
3_S8,09/05/2023,10:20:34.500,-0.063,-0.063,0.938,-396.0,-408.0,-1434.0,,
3_S8,09/05/2023,10:20:34.600,0.000,-0.063,0.938,,,,,
3_S8,09/05/2023,10:20:34.700,-0.063,-0.063,0.938,,,,,
3_S8,09/05/2023,10:20:34.800,-0.063,-0.063,0.938,,,,,
3_S8,09/05/2023,10:20:34.900,-0.063,-0.125,0.938,,,,,
3_S8,09/05/2023,10:20:35.000,-0.063,-0.125,1.000,-390.0,-426.0,-1432.5,,
3_S8,09/05/2023,10:20:35.100,-0.063,-0.069,1.000,,,,,
3_S8,09/05/2023,10:20:35.200,-0.063,-0.013,0.950,,,,,
3_S8,09/05/2023,10:20:35.300,-0.063,-0.044,0.938,,,,,
3_S8,09/05/2023,10:20:35.400,-0.063,-0.100,0.938,,,,,
3_S8,09/05/2023,10:20:35.500,-0.063,-0.094,0.969,-399.0,-394.5,-1449.0,,
3_S8,09/05/2023,10:20:35.600,-0.063,-0.088,1.000,,,,,
3_S8,09/05/2023,10:20:35.700,-0.063,-0.125,1.000,,,,,
3_S8,09/05/2023,10:20:35.800,-0.050,-0.125,0.988,,,,,
3_S8,09/05/2023,10:20:35.900,0.000,-0.125,0.938,,,,,
3_S8,09/05/2023,10:20:36.000,-0.063,-0.063,0.938,-390.0,-415.5,-1444.5,,
3_S8,09/05/2023,10:20:36.100,-0.063,-0.125,1.000,,,,,
3_S8,09/05/2023,10:20:36.200,-0.063,-0.063,0.938,,,,,
3_S8,09/05/2023,10:20:36.300,-0.063,-0.063,1.000,,,,,
3_S8,09/05/2023,10:20:36.400,-0.063,-0.063,0.938,,,,,
3_S8,09/05/2023,10:20:36.500,-0.063,-0.125,0.938,-385.5,-427.5,-1452.0,,
3_S8,09/05/2023,10:20:36.600,0.000,-0.125,1.000,,,,,
3_S8,09/05/2023,10:20:36.700,0.000,-0.063,0.938,,,,,
3_S8,09/05/2023,10:20:36.800,-0.063,-0.063,1.000,,,,,
3_S8,09/05/2023,10:20:36.900,0.000,-0.063,0.938,,,,,
3_S8,09/05/2023,10:20:37.000,-0.063,-0.063,0.938,-381.0,-400.5,-1432.5,21,
3_S8,09/05/2023,10:20:37.100,-0.063,-0.063,1.000,,,,,
3_S8,09/05/2023,10:20:37.200,0.000,-0.063,0.938,,,,,
3_S8,09/05/2023,10:20:37.300,0.000,-0.063,0.938,,,,,
3_S8,09/05/2023,10:20:37.400,0.000,-0.063,0.938,,,,,
3_S8,09/05/2023,10:20:37.500,-0.063,-0.063,1.000,-393.0,-412.5,-1426.5,,
3_S8,09/05/2023,10:20:37.600,-0.063,-0.063,1.000,,,,,
3_S8,09/05/2023,10:20:37.700,-0.063,-0.063,1.000,,,,,
3_S8,09/05/2023,10:20:37.800,-0.063,-0.125,0.938,,,,,
3_S8,09/05/2023,10:20:37.900,-0.063,0.000,0.938,,,,,
3_S8,09/05/2023,10:20:38.000,0.000,-0.063,0.938,-379.5,-411.0,-1438.5,,
3_S8,09/05/2023,10:20:38.100,-0.063,-0.125,0.938,,,,,
3_S8,09/05/2023,10:20:38.200,-0.063,-0.125,1.000,,,,,
3_S8,09/05/2023,10:20:38.300,0.000,-0.063,1.000,,,,,
3_S8,09/05/2023,10:20:38.400,-0.063,-0.125,1.000,,,,,
3_S8,09/05/2023,10:20:38.500,-0.063,-0.063,0.938,-378.0,-415.5,-1428.0,,
3_S8,09/05/2023,10:20:38.600,-0.063,-0.063,0.938,,,,,
3_S8,09/05/2023,10:20:38.700,-0.063,-0.063,1.000,,,,,
3_S8,09/05/2023,10:20:38.800,-0.063,-0.125,0.938,,,,,
3_S8,09/05/2023,10:20:38.900,-0.063,-0.063,0.938,,,,,
3_S8,09/05/2023,10:20:39.000,-0.063,-0.063,0.938,-406.5,-397.5,-1428.0,,
3_S8,09/05/2023,10:20:39.100,-0.063,-0.063,0.994,,,,,
3_S8,09/05/2023,10:20:39.200,-0.063,-0.063,0.950,,,,,
3_S8,09/05/2023,10:20:39.300,-0.063,-0.063,0.938,,,,,
3_S8,09/05/2023,10:20:39.400,-0.063,-0.063,0.900,,,,,
3_S8,09/05/2023,10:20:39.500,-0.063,-0.094,0.938,-393.0,-405.0,-1432.5,,
3_S8,09/05/2023,10:20:39.600,-0.038,-0.100,1.000,,,,,
3_S8,09/05/2023,10:20:39.700,-0.019,-0.063,1.000,,,,,
3_S8,09/05/2023,10:20:39.800,-0.063,-0.063,0.988,,,,,
3_S8,09/05/2023,10:20:39.900,-0.063,-0.063,0.938,,,,,
3_S8,09/05/2023,10:20:40.000,-0.063,0.000,1.000,-400.5,-409.5,-1431.0,,
3_S8,09/05/2023,10:20:40.100,-0.063,-0.063,1.000,,,,,
3_S8,09/05/2023,10:20:40.200,-0.063,-0.063,1.000,,,,,
3_S8,09/05/2023,10:20:40.300,-0.063,-0.125,1.000,,,,,
3_S8,09/05/2023,10:20:40.400,-0.063,-0.063,1.000,,,,,
3_S8,09/05/2023,10:20:40.500,-0.063,-0.125,1.000,-378.0,-408.0,-1443.0,,
3_S8,09/05/2023,10:20:40.600,-0.063,-0.063,1.000,,,,,
3_S8,09/05/2023,10:20:40.700,-0.063,-0.125,0.938,,,,,
3_S8,09/05/2023,10:20:40.800,-0.063,-0.063,0.938,,,,,
3_S8,09/05/2023,10:20:40.900,0.000,-0.125,1.000,,,,,
3_S8,09/05/2023,10:20:41.000,-0.063,-0.063,1.000,-397.5,-418.5,-1435.5,,
3_S8,09/05/2023,10:20:41.100,-0.063,-0.063,0.938,,,,,
3_S8,09/05/2023,10:20:41.200,-0.063,-0.063,1.000,,,,,
3_S8,09/05/2023,10:20:41.300,-0.063,-0.063,1.000,,,,,
3_S8,09/05/2023,10:20:41.400,0.000,-0.063,0.938,,,,,
3_S8,09/05/2023,10:20:41.500,0.000,-0.063,1.000,-390.0,-415.5,-1444.5,,
3_S8,09/05/2023,10:20:41.600,0.000,-0.063,1.000,,,,,
3_S8,09/05/2023,10:20:41.700,-0.063,-0.063,0.938,,,,,
3_S8,09/05/2023,10:20:41.800,0.000,-0.125,0.938,,,,,
3_S8,09/05/2023,10:20:41.900,0.000,-0.063,0.938,,,,,
3_S8,09/05/2023,10:20:42.000,-0.063,-0.125,0.938,-403.5,-400.5,-1435.5,21,
3_S8,09/05/2023,10:20:42.100,-0.063,0.000,0.938,,,,,
3_S8,09/05/2023,10:20:42.200,-0.063,0.000,1.000,,,,,
3_S8,09/05/2023,10:20:42.300,-0.063,-0.125,0.938,,,,,
3_S8,09/05/2023,10:20:42.400,-0.063,-0.125,0.938,,,,,
3_S8,09/05/2023,10:20:42.500,-0.063,-0.063,1.000,-391.5,-405.0,-1432.5,,
3_S8,09/05/2023,10:20:42.600,-0.063,-0.063,0.938,,,,,
3_S8,09/05/2023,10:20:42.700,0.000,0.000,0.938,,,,,
3_S8,09/05/2023,10:20:42.800,-0.063,-0.125,0.938,,,,,
3_S8,09/05/2023,10:20:42.900,-0.063,-0.063,0.938,,,,,
3_S8,09/05/2023,10:20:43.000,-0.063,-0.063,1.000,-397.5,-424.5,-1425.0,,
3_S8,09/05/2023,10:20:43.100,-0.063,-0.006,1.000,,,,,
3_S8,09/05/2023,10:20:43.200,-0.013,-0.100,0.950,,,,,
3_S8,09/05/2023,10:20:43.300,-0.044,-0.125,0.982,,,,,
3_S8,09/05/2023,10:20:43.400,-0.063,-0.125,1.000,,,,,
3_S8,09/05/2023,10:20:43.500,-0.063,-0.125,1.000,-376.5,-412.5,-1443.0,,
3_S8,09/05/2023,10:20:43.600,-0.063,-0.100,1.000,,,,,
3_S8,09/05/2023,10:20:43.700,-0.063,-0.063,1.000,,,,,
3_S8,09/05/2023,10:20:43.800,-0.063,-0.063,0.988,,,,,
3_S8,09/05/2023,10:20:43.900,-0.063,-0.063,0.938,,,,,
3_S8,09/05/2023,10:20:44.000,-0.063,-0.063,0.938,-388.5,-412.5,-1425.0,,
3_S8,09/05/2023,10:20:44.100,-0.063,-0.125,0.938,,,,,
3_S8,09/05/2023,10:20:44.200,-0.063,-0.063,1.000,,,,,
3_S8,09/05/2023,10:20:44.300,-0.063,-0.125,0.938,,,,,
3_S8,09/05/2023,10:20:44.400,-0.063,-0.063,1.000,,,,,
3_S8,09/05/2023,10:20:44.500,-0.063,-0.063,0.938,-397.5,-414.0,-1432.5,,
3_S8,09/05/2023,10:20:44.600,-0.063,-0.125,1.000,,,,,
3_S8,09/05/2023,10:20:44.700,-0.063,-0.125,0.938,,,,,
3_S8,09/05/2023,10:20:44.800,0.000,-0.063,0.938,,,,,
3_S8,09/05/2023,10:20:44.900,-0.063,-0.125,0.938,,,,,
3_S8,09/05/2023,10:20:45.000,-0.063,-0.125,0.938,-403.5,-427.5,-1429.5,,
3_S8,09/05/2023,10:20:45.100,-0.063,-0.063,0.938,,,,,
3_S8,09/05/2023,10:20:45.200,0.000,-0.063,1.000,,,,,
3_S8,09/05/2023,10:20:45.300,-0.063,-0.063,1.000,,,,,
3_S8,09/05/2023,10:20:45.400,-0.063,-0.063,1.000,,,,,
3_S8,09/05/2023,10:20:45.500,-0.063,-0.063,0.938,-391.5,-418.5,-1426.5,,
3_S8,09/05/2023,10:20:45.600,-0.063,-0.063,1.000,,,,,
3_S8,09/05/2023,10:20:45.700,-0.063,-0.063,0.938,,,,,
3_S8,09/05/2023,10:20:45.800,0.000,-0.063,1.000,,,,,
3_S8,09/05/2023,10:20:45.900,-0.063,-0.125,0.938,,,,,
3_S8,09/05/2023,10:20:46.000,-0.063,-0.063,0.938,-388.5,-414.0,-1437.0,,
3_S8,09/05/2023,10:20:46.100,-0.063,-0.063,1.000,,,,,
3_S8,09/05/2023,10:20:46.200,-0.063,-0.125,1.000,,,,,
3_S8,09/05/2023,10:20:46.300,0.000,-0.063,0.938,,,,,
3_S8,09/05/2023,10:20:46.400,-0.063,-0.125,1.000,,,,,
3_S8,09/05/2023,10:20:46.500,-0.063,-0.063,0.938,-391.5,-405.0,-1435.5,,
3_S8,09/05/2023,10:20:46.600,-0.063,-0.063,1.000,,,,,
3_S8,09/05/2023,10:20:46.700,-0.063,-0.125,0.938,,,,,
3_S8,09/05/2023,10:20:46.800,-0.063,-0.063,1.000,,,,,
3_S8,09/05/2023,10:20:46.900,0.000,-0.125,1.000,,,,,
3_S8,09/05/2023,10:20:47.000,-0.063,-0.063,1.000,-391.5,-426.0,-1432.5,21,
3_S8,09/05/2023,10:20:47.100,-0.063,-0.119,1.000,,,,,
3_S8,09/05/2023,10:20:47.200,-0.063,-0.075,1.000,,,,,
3_S8,09/05/2023,10:20:47.300,-0.063,-0.106,1.000,,,,,
3_S8,09/05/2023,10:20:47.400,-0.063,-0.088,1.000,,,,,
3_S8,09/05/2023,10:20:47.500,-0.063,-0.063,1.000,-397.5,-409.5,-1443.0,,
3_S8,09/05/2023,10:20:47.600,-0.063,-0.063,0.975,,,,,
3_S8,09/05/2023,10:20:47.700,-0.044,-0.081,0.957,,,,,
3_S8,09/05/2023,10:20:47.800,-0.013,-0.113,0.988,,,,,
3_S8,09/05/2023,10:20:47.900,-0.063,-0.063,0.938,,,,,
3_S8,09/05/2023,10:20:48.000,-0.063,-0.063,0.938,-391.5,-421.5,-1425.0,,
3_S8,09/05/2023,10:20:48.100,0.000,-0.063,1.000,,,,,
3_S8,09/05/2023,10:20:48.200,-0.063,-0.063,1.000,,,,,
3_S8,09/05/2023,10:20:48.300,-0.063,-0.063,0.938,,,,,
3_S8,09/05/2023,10:20:48.400,0.000,-0.063,0.938,,,,,
3_S8,09/05/2023,10:20:48.500,0.000,-0.063,1.000,-397.5,-406.5,-1423.5,,
3_S8,09/05/2023,10:20:48.600,-0.063,-0.063,1.000,,,,,
3_S8,09/05/2023,10:20:48.700,-0.063,-0.125,1.000,,,,,
3_S8,09/05/2023,10:20:48.800,-0.063,-0.063,1.000,,,,,
3_S8,09/05/2023,10:20:48.900,-0.063,-0.063,0.938,,,,,
3_S8,09/05/2023,10:20:49.000,0.000,-0.063,0.938,-402.0,-414.0,-1423.5,,
3_S8,09/05/2023,10:20:49.100,-0.063,-0.063,1.063,,,,,
3_S8,09/05/2023,10:20:49.200,-0.063,-0.063,1.000,,,,,
3_S8,09/05/2023,10:20:49.300,-0.063,-0.063,1.000,,,,,
3_S8,09/05/2023,10:20:49.400,-0.063,-0.063,0.938,,,,,
3_S8,09/05/2023,10:20:49.500,-0.063,-0.063,1.000,-394.5,-418.5,-1440.0,,
3_S8,09/05/2023,10:20:49.600,-0.063,-0.063,0.938,,,,,
3_S8,09/05/2023,10:20:49.700,-0.063,-0.125,0.938,,,,,
3_S8,09/05/2023,10:20:49.800,-0.063,-0.063,1.000,,,,,
3_S8,09/05/2023,10:20:49.900,-0.063,-0.063,1.000,,,,,
3_S8,09/05/2023,10:20:50.000,-0.063,-0.063,0.938,-388.5,-412.5,-1428.0,,
3_S8,09/05/2023,10:20:50.100,-0.063,-0.063,1.000,,,,,
3_S8,09/05/2023,10:20:50.200,-0.063,-0.125,0.938,,,,,
3_S8,09/05/2023,10:20:50.300,-0.063,-0.125,1.000,,,,,
3_S8,09/05/2023,10:20:50.400,-0.063,-0.063,0.938,,,,,
3_S8,09/05/2023,10:20:50.500,-0.063,-0.063,0.938,-396.0,-411.0,-1413.0,,
3_S8,09/05/2023,10:20:50.600,0.000,-0.125,0.938,,,,,
3_S8,09/05/2023,10:20:50.700,-0.063,-0.125,1.000,,,,,
3_S8,09/05/2023,10:20:50.800,-0.063,0.000,1.000,,,,,
3_S8,09/05/2023,10:20:50.900,-0.063,-0.125,1.000,,,,,
3_S8,09/05/2023,10:20:51.000,-0.063,-0.063,1.000,-391.5,-405.0,-1437.0,,
3_S8,09/05/2023,10:20:51.100,-0.063,-0.119,1.000,,,,,
3_S8,09/05/2023,10:20:51.200,-0.063,-0.075,0.950,,,,,
3_S8,09/05/2023,10:20:51.300,-0.063,-0.106,0.938,,,,,
3_S8,09/05/2023,10:20:51.400,-0.025,-0.088,0.975,,,,,
3_S8,09/05/2023,10:20:51.500,-0.031,-0.063,0.969,-390.0,-415.5,-1428.0,,
3_S8,09/05/2023,10:20:51.600,-0.063,-0.063,0.938,,,,,
3_S8,09/05/2023,10:20:51.700,-0.063,-0.063,0.938,,,,,
3_S8,09/05/2023,10:20:51.800,-0.050,-0.063,0.950,,,,,
3_S8,09/05/2023,10:20:51.900,0.000,-0.063,1.000,,,,,
3_S8,09/05/2023,10:20:52.000,-0.063,-0.125,1.000,-397.5,-414.0,-1428.0,22,
3_S8,09/05/2023,10:20:52.100,-0.063,-0.063,1.000,,,,,
3_S8,09/05/2023,10:20:52.200,-0.063,-0.063,0.938,,,,,
3_S8,09/05/2023,10:20:52.300,-0.063,-0.125,1.000,,,,,
3_S8,09/05/2023,10:20:52.400,0.000,-0.063,1.000,,,,,
3_S8,09/05/2023,10:20:52.500,-0.063,-0.063,0.938,-391.5,-409.5,-1414.5,,
3_S8,09/05/2023,10:20:52.600,-0.063,-0.063,0.938,,,,,
3_S8,09/05/2023,10:20:52.700,-0.063,-0.063,0.938,,,,,
3_S8,09/05/2023,10:20:52.800,-0.063,-0.063,1.000,,,,,
3_S8,09/05/2023,10:20:52.900,-0.063,-0.125,1.000,,,,,
3_S8,09/05/2023,10:20:53.000,0.000,-0.063,0.938,-402.0,-399.0,-1404.0,,
3_S8,09/05/2023,10:20:53.100,-0.063,-0.063,0.938,,,,,
3_S8,09/05/2023,10:20:53.200,-0.063,-0.125,1.000,,,,,
3_S8,09/05/2023,10:20:53.300,-0.063,-0.063,0.938,,,,,
3_S8,09/05/2023,10:20:53.400,-0.063,-0.063,0.938,,,,,
3_S8,09/05/2023,10:20:53.500,-0.063,-0.063,1.000,-397.5,-427.5,-1429.5,,
3_S8,09/05/2023,10:20:53.600,-0.063,-0.063,1.000,,,,,
3_S8,09/05/2023,10:20:53.700,-0.063,-0.063,1.000,,,,,
3_S8,09/05/2023,10:20:53.800,0.000,-0.125,0.938,,,,,
3_S8,09/05/2023,10:20:53.900,-0.063,-0.063,1.000,,,,,
3_S8,09/05/2023,10:20:54.000,-0.063,-0.063,0.938,-385.5,-402.0,-1423.5,,
3_S8,09/05/2023,10:20:54.100,0.000,-0.063,1.000,,,,,
3_S8,09/05/2023,10:20:54.200,0.000,-0.063,1.000,,,,,
3_S8,09/05/2023,10:20:54.300,-0.063,-0.063,1.000,,,,,
3_S8,09/05/2023,10:20:54.400,0.000,-0.125,0.938,,,,,
3_S8,09/05/2023,10:20:54.500,0.000,-0.063,1.000,-400.5,-421.5,-1428.0,,
3_S8,09/05/2023,10:20:54.600,-0.063,-0.125,1.000,,,,,
3_S8,09/05/2023,10:20:54.700,-0.063,-0.125,0.938,,,,,
3_S8,09/05/2023,10:20:54.800,-0.063,-0.125,1.000,,,,,
3_S8,09/05/2023,10:20:54.900,-0.063,-0.063,0.938,,,,,
3_S8,09/05/2023,10:20:55.000,-0.063,-0.125,1.000,-387.0,-415.5,-1428.0,,
3_S8,09/05/2023,10:20:55.100,-0.063,-0.069,0.944,,,,,
3_S8,09/05/2023,10:20:55.200,-0.063,-0.063,0.988,,,,,
3_S8,09/05/2023,10:20:55.300,-0.063,-0.063,0.957,,,,,
3_S8,09/05/2023,10:20:55.400,-0.063,-0.063,0.975,,,,,
3_S8,09/05/2023,10:20:55.500,-0.063,-0.063,0.969,-388.5,-408.0,-1438.5,,
3_S8,09/05/2023,10:20:55.600,-0.063,-0.063,0.938,,,,,
3_S8,09/05/2023,10:20:55.700,-0.063,-0.063,0.938,,,,,
3_S8,09/05/2023,10:20:55.800,-0.063,-0.063,0.938,,,,,
3_S8,09/05/2023,10:20:55.900,-0.063,-0.063,0.938,,,,,
3_S8,09/05/2023,10:20:56.000,-0.063,-0.125,0.938,-391.5,-408.0,-1423.5,,
3_S8,09/05/2023,10:20:56.100,-0.063,-0.063,1.000,,,,,
3_S8,09/05/2023,10:20:56.200,0.000,-0.063,0.938,,,,,
3_S8,09/05/2023,10:20:56.300,-0.063,-0.063,1.000,,,,,
3_S8,09/05/2023,10:20:56.400,-0.063,-0.063,0.938,,,,,
3_S8,09/05/2023,10:20:56.500,-0.063,-0.125,1.000,-397.5,-402.0,-1434.0,,
3_S8,09/05/2023,10:20:56.600,0.000,-0.125,1.000,,,,,
3_S8,09/05/2023,10:20:56.700,-0.063,0.000,1.000,,,,,
3_S8,09/05/2023,10:20:56.800,-0.063,-0.063,1.000,,,,,
3_S8,09/05/2023,10:20:56.900,-0.063,-0.063,1.000,,,,,
3_S8,09/05/2023,10:20:57.000,0.000,-0.125,0.938,-405.0,-405.0,-1429.5,22,
3_S8,09/05/2023,10:20:57.100,-0.063,-0.125,1.000,,,,,
3_S8,09/05/2023,10:20:57.200,-0.063,-0.063,0.938,,,,,
3_S8,09/05/2023,10:20:57.300,-0.063,-0.125,1.000,,,,,
3_S8,09/05/2023,10:20:57.400,0.000,-0.063,1.000,,,,,
3_S8,09/05/2023,10:20:57.500,0.000,-0.125,0.938,-397.5,-421.5,-1437.0,,
3_S8,09/05/2023,10:20:57.600,-0.063,-0.125,1.000,,,,,
3_S8,09/05/2023,10:20:57.700,0.000,-0.063,0.938,,,,,
3_S8,09/05/2023,10:20:57.800,-0.063,-0.063,0.938,,,,,
3_S8,09/05/2023,10:20:57.900,-0.063,-0.063,0.938,,,,,
3_S8,09/05/2023,10:20:58.000,-0.063,-0.063,1.000,-402.0,-411.0,-1420.5,,
3_S8,09/05/2023,10:20:58.100,-0.063,-0.063,0.938,,,,,
3_S8,09/05/2023,10:20:58.200,0.000,-0.063,0.938,,,,,
3_S8,09/05/2023,10:20:58.300,-0.063,-0.063,0.938,,,,,
3_S8,09/05/2023,10:20:58.400,-0.063,-0.125,1.000,,,,,
3_S8,09/05/2023,10:20:58.500,-0.063,-0.125,1.000,-402.0,-412.5,-1416.0,,
3_S8,09/05/2023,10:20:58.600,-0.063,-0.125,0.938,,,,,
3_S8,09/05/2023,10:20:58.700,-0.063,-0.063,1.000,,,,,
3_S8,09/05/2023,10:20:58.800,0.000,-0.063,0.938,,,,,
3_S8,09/05/2023,10:20:58.900,-0.063,-0.125,0.938,,,,,
3_S8,09/05/2023,10:20:59.000,-0.063,0.000,0.938,-397.5,-412.5,-1434.0,,
3_S8,09/05/2023,10:20:59.100,-0.063,-0.113,0.938,,,,,
3_S8,09/05/2023,10:20:59.200,-0.063,-0.025,0.938,,,,,
3_S8,09/05/2023,10:20:59.300,-0.063,-0.044,0.938,,,,,
3_S8,09/05/2023,10:20:59.400,-0.063,-0.063,0.938,,,,,
3_S8,09/05/2023,10:20:59.500,-0.031,-0.063,0.938,-388.5,-415.5,-1422.0,,
3_S8,09/05/2023,10:20:59.600,-0.025,-0.063,0.938,,,,,
3_S8,09/05/2023,10:20:59.700,-0.044,-0.063,0.938,,,,,
3_S8,09/05/2023,10:20:59.800,-0.013,-0.063,0.938,,,,,
3_S8,09/05/2023,10:20:59.900,-0.063,-0.063,0.938,,,,,
3_S8,09/05/2023,10:21:00.000,-0.063,-0.063,1.000,-378.0,-415.5,-1428.0,,
3_S8,09/05/2023,10:21:00.100,-0.063,-0.063,1.000,,,,,
3_S8,09/05/2023,10:21:00.200,-0.063,-0.125,0.938,,,,,
3_S8,09/05/2023,10:21:00.300,0.000,-0.125,0.938,,,,,
3_S8,09/05/2023,10:21:00.400,-0.063,-0.063,1.000,,,,,
3_S8,09/05/2023,10:21:00.500,-0.063,0.000,0.938,-391.5,-414.0,-1425.0,,
3_S8,09/05/2023,10:21:00.600,-0.063,-0.063,0.938,,,,,
3_S8,09/05/2023,10:21:00.700,0.000,-0.125,1.000,,,,,
3_S8,09/05/2023,10:21:00.800,-0.063,-0.063,1.000,,,,,
3_S8,09/05/2023,10:21:00.900,-0.063,-0.063,1.000,,,,,
3_S8,09/05/2023,10:21:01.000,-0.063,-0.125,0.938,-402.0,-417.0,-1423.5,,
3_S8,09/05/2023,10:21:01.100,0.000,-0.063,0.938,,,,,
3_S8,09/05/2023,10:21:01.200,-0.063,-0.063,1.000,,,,,
3_S8,09/05/2023,10:21:01.300,0.000,-0.063,1.000,,,,,
3_S8,09/05/2023,10:21:01.400,-0.063,-0.063,1.000,,,,,
3_S8,09/05/2023,10:21:01.500,-0.063,-0.063,1.000,-388.5,-408.0,-1435.5,,
3_S8,09/05/2023,10:21:01.600,-0.063,-0.063,1.000,,,,,
3_S8,09/05/2023,10:21:01.700,0.000,-0.125,1.000,,,,,
3_S8,09/05/2023,10:21:01.800,-0.063,-0.063,0.938,,,,,
3_S8,09/05/2023,10:21:01.900,-0.063,-0.063,0.938,,,,,
3_S8,09/05/2023,10:21:02.000,-0.063,-0.125,1.000,-400.5,-415.5,-1435.5,22,
3_S8,09/05/2023,10:21:02.100,0.000,-0.125,1.000,,,,,
3_S8,09/05/2023,10:21:02.200,-0.063,-0.063,1.000,,,,,
3_S8,09/05/2023,10:21:02.300,-0.063,-0.125,1.000,,,,,
3_S8,09/05/2023,10:21:02.400,0.000,-0.063,0.938,,,,,
3_S8,09/05/2023,10:21:02.500,-0.063,-0.063,0.938,-393.0,-418.5,-1429.5,,
3_S8,09/05/2023,10:21:02.600,-0.063,-0.125,1.000,,,,,
3_S8,09/05/2023,10:21:02.700,-0.063,0.000,1.000,,,,,
3_S8,09/05/2023,10:21:02.800,-0.063,-0.063,1.000,,,,,
3_S8,09/05/2023,10:21:02.900,-0.063,-0.063,1.000,,,,,
3_S8,09/05/2023,10:21:03.000,-0.063,-0.063,0.938,-400.5,-415.5,-1411.5,,
3_S8,09/05/2023,10:21:03.100,-0.063,-0.063,0.994,,,,,
3_S8,09/05/2023,10:21:03.200,-0.063,-0.063,0.950,,,,,
3_S8,09/05/2023,10:21:03.300,-0.019,-0.019,0.982,,,,,
3_S8,09/05/2023,10:21:03.400,-0.038,-0.038,1.000,,,,,
3_S8,09/05/2023,10:21:03.500,-0.063,-0.063,0.969,-397.5,-405.0,-1429.5,,
3_S8,09/05/2023,10:21:03.600,-0.063,-0.063,0.938,,,,,
3_S8,09/05/2023,10:21:03.700,-0.044,-0.063,0.957,,,,,
3_S8,09/05/2023,10:21:03.800,-0.013,-0.063,0.988,,,,,
3_S8,09/05/2023,10:21:03.900,-0.063,-0.063,0.938,,,,,
3_S8,09/05/2023,10:21:04.000,0.000,-0.063,0.938,-394.5,-409.5,-1422.0,,
3_S8,09/05/2023,10:21:04.100,-0.063,-0.063,0.938,,,,,
3_S8,09/05/2023,10:21:04.200,0.000,0.000,0.938,,,,,
3_S8,09/05/2023,10:21:04.300,-0.063,-0.125,0.938,,,,,
3_S8,09/05/2023,10:21:04.400,-0.063,-0.063,1.000,,,,,
3_S8,09/05/2023,10:21:04.500,-0.063,-0.063,1.000,-409.5,-406.5,-1405.5,,
3_S8,09/05/2023,10:21:04.600,-0.063,-0.063,1.000,,,,,
3_S8,09/05/2023,10:21:04.700,-0.063,-0.063,1.000,,,,,
3_S8,09/05/2023,10:21:04.800,-0.063,-0.063,0.938,,,,,
3_S8,09/05/2023,10:21:04.900,-0.063,-0.063,1.000,,,,,
3_S8,09/05/2023,10:21:05.000,-0.063,-0.063,1.000,-400.5,-420.0,-1425.0,,
3_S8,09/05/2023,10:21:05.100,0.000,-0.063,1.000,,,,,
3_S8,09/05/2023,10:21:05.200,-0.063,-0.063,0.938,,,,,
3_S8,09/05/2023,10:21:05.300,-0.063,-0.063,1.000,,,,,
3_S8,09/05/2023,10:21:05.400,-0.063,-0.063,1.000,,,,,
3_S8,09/05/2023,10:21:05.500,0.000,-0.063,0.938,-378.0,-406.5,-1423.5,,
3_S8,09/05/2023,10:21:05.600,0.000,-0.125,0.938,,,,,
3_S8,09/05/2023,10:21:05.700,-0.063,-0.063,0.938,,,,,
3_S8,09/05/2023,10:21:05.800,-0.063,-0.063,0.938,,,,,
3_S8,09/05/2023,10:21:05.900,-0.063,-0.125,0.938,,,,,
3_S8,09/05/2023,10:21:06.000,-0.063,-0.125,0.938,-402.0,-426.0,-1437.0,,
3_S8,09/05/2023,10:21:06.100,-0.063,-0.125,1.000,,,,,
3_S8,09/05/2023,10:21:06.200,-0.063,-0.063,1.000,,,,,
3_S8,09/05/2023,10:21:06.300,-0.063,-0.125,0.938,,,,,
3_S8,09/05/2023,10:21:06.400,-0.063,0.000,0.938,,,,,
3_S8,09/05/2023,10:21:06.500,-0.063,0.000,0.938,-397.5,-423.0,-1422.0,,
3_S8,09/05/2023,10:21:06.600,-0.063,-0.125,0.938,,,,,
3_S8,09/05/2023,10:21:06.700,0.000,-0.063,1.000,,,,,
3_S8,09/05/2023,10:21:06.800,-0.063,0.000,0.938,,,,,
3_S8,09/05/2023,10:21:06.900,0.000,-0.063,0.938,,,,,
3_S8,09/05/2023,10:21:07.000,-0.063,0.000,1.000,-393.0,-424.5,-1429.5,22,
3_S8,09/05/2023,10:21:07.100,-0.063,-0.056,1.000,,,,,
3_S8,09/05/2023,10:21:07.200,-0.063,-0.063,0.950,,,,,
3_S8,09/05/2023,10:21:07.300,-0.019,-0.106,0.982,,,,,
3_S8,09/05/2023,10:21:07.400,-0.038,-0.088,0.963,,,,,
3_S8,09/05/2023,10:21:07.500,-0.063,-0.094,0.969,-393.0,-402.0,-1425.0,,
3_S8,09/05/2023,10:21:07.600,-0.063,-0.100,0.975,,,,,
3_S8,09/05/2023,10:21:07.700,-0.063,-0.063,0.957,,,,,
3_S8,09/05/2023,10:21:07.800,-0.063,-0.063,0.988,,,,,
3_S8,09/05/2023,10:21:07.900,-0.063,-0.063,0.938,,,,,
3_S8,09/05/2023,10:21:08.000,-0.063,-0.125,0.938,-400.5,-406.5,-1425.0,,
3_S8,09/05/2023,10:21:08.100,0.000,-0.063,1.000,,,,,
3_S8,09/05/2023,10:21:08.200,-0.063,-0.125,0.938,,,,,
3_S8,09/05/2023,10:21:08.300,-0.063,-0.125,0.938,,,,,
3_S8,09/05/2023,10:21:08.400,-0.063,-0.063,1.000,,,,,
3_S8,09/05/2023,10:21:08.500,-0.063,-0.125,1.000,-393.0,-411.0,-1404.0,,
3_S8,09/05/2023,10:21:08.600,-0.063,-0.063,0.938,,,,,
3_S8,09/05/2023,10:21:08.700,-0.063,-0.125,1.000,,,,,
3_S8,09/05/2023,10:21:08.800,-0.063,-0.125,1.000,,,,,
3_S8,09/05/2023,10:21:08.900,0.000,-0.125,0.938,,,,,
3_S8,09/05/2023,10:21:09.000,-0.063,-0.063,1.000,-400.5,-409.5,-1431.0,,
3_S8,09/05/2023,10:21:09.100,0.000,-0.063,1.000,,,,,
3_S8,09/05/2023,10:21:09.200,-0.063,-0.125,1.000,,,,,
3_S8,09/05/2023,10:21:09.300,-0.063,-0.063,1.000,,,,,
3_S8,09/05/2023,10:21:09.400,-0.063,-0.063,1.000,,,,,
3_S8,09/05/2023,10:21:09.500,-0.063,-0.063,0.938,-387.0,-409.5,-1405.5,,
3_S8,09/05/2023,10:21:09.600,-0.063,-0.063,0.938,,,,,
3_S8,09/05/2023,10:21:09.700,-0.063,-0.125,1.000,,,,,
3_S8,09/05/2023,10:21:09.800,-0.063,-0.063,1.000,,,,,
3_S8,09/05/2023,10:21:09.900,-0.063,-0.063,1.000,,,,,
3_S8,09/05/2023,10:21:10.000,-0.063,-0.125,0.938,-396.0,-418.5,-1432.5,,
3_S8,09/05/2023,10:21:10.100,-0.063,-0.063,1.000,,,,,
3_S8,09/05/2023,10:21:10.200,-0.063,-0.063,0.938,,,,,
3_S8,09/05/2023,10:21:10.300,-0.063,-0.063,1.000,,,,,
3_S8,09/05/2023,10:21:10.400,-0.063,-0.125,0.938,,,,,
3_S8,09/05/2023,10:21:10.500,-0.063,-0.063,1.000,-382.5,-418.5,-1414.5,,
3_S8,09/05/2023,10:21:10.600,-0.063,-0.063,1.000,,,,,
3_S8,09/05/2023,10:21:10.700,-0.063,-0.063,1.000,,,,,
3_S8,09/05/2023,10:21:10.800,0.000,-0.125,1.000,,,,,
3_S8,09/05/2023,10:21:10.900,-0.063,-0.063,1.000,,,,,
3_S8,09/05/2023,10:21:11.000,-0.063,-0.125,1.000,-372.0,-406.5,-1419.0,,
3_S8,09/05/2023,10:21:11.100,-0.063,-0.125,0.944,,,,,
3_S8,09/05/2023,10:21:11.200,-0.063,-0.075,0.938,,,,,
3_S8,09/05/2023,10:21:11.300,-0.019,-0.063,0.982,,,,,
3_S8,09/05/2023,10:21:11.400,-0.038,-0.063,1.000,,,,,
3_S8,09/05/2023,10:21:11.500,-0.063,-0.063,1.000,-394.5,-402.0,-1428.0,,
3_S8,09/05/2023,10:21:11.600,-0.038,-0.063,1.000,,,,,
3_S8,09/05/2023,10:21:11.700,0.000,-0.081,0.982,,,,,
3_S8,09/05/2023,10:21:11.800,-0.013,-0.113,0.938,,,,,
3_S8,09/05/2023,10:21:11.900,-0.063,-0.063,0.938,,,,,
3_S8,09/05/2023,10:21:12.000,-0.063,-0.063,1.000,-385.5,-408.0,-1426.5,21,
3_S8,09/05/2023,10:21:12.100,-0.063,-0.063,0.938,,,,,
3_S8,09/05/2023,10:21:12.200,-0.063,-0.063,1.000,,,,,
3_S8,09/05/2023,10:21:12.300,0.000,-0.125,1.000,,,,,
3_S8,09/05/2023,10:21:12.400,-0.063,-0.125,0.938,,,,,
3_S8,09/05/2023,10:21:12.500,-0.063,-0.063,1.000,-388.5,-412.5,-1420.5,,
3_S8,09/05/2023,10:21:12.600,0.000,-0.125,0.938,,,,,
3_S8,09/05/2023,10:21:12.700,-0.063,-0.125,0.938,,,,,
3_S8,09/05/2023,10:21:12.800,0.000,-0.125,1.000,,,,,
3_S8,09/05/2023,10:21:12.900,0.000,-0.125,0.938,,,,,
3_S8,09/05/2023,10:21:13.000,-0.063,-0.063,1.000,-385.5,-411.0,-1417.5,,
3_S8,09/05/2023,10:21:13.100,-0.063,-0.063,1.000,,,,,
3_S8,09/05/2023,10:21:13.200,0.000,-0.063,1.000,,,,,
3_S8,09/05/2023,10:21:13.300,-0.063,-0.063,1.000,,,,,
3_S8,09/05/2023,10:21:13.400,-0.063,-0.125,1.000,,,,,
3_S8,09/05/2023,10:21:13.500,-0.063,-0.063,0.938,-381.0,-412.5,-1423.5,,
3_S8,09/05/2023,10:21:13.600,-0.063,0.000,0.938,,,,,
3_S8,09/05/2023,10:21:13.700,-0.063,-0.063,1.000,,,,,
3_S8,09/05/2023,10:21:13.800,-0.063,-0.063,1.000,,,,,
3_S8,09/05/2023,10:21:13.900,-0.063,-0.063,1.000,,,,,
3_S8,09/05/2023,10:21:14.000,-0.063,-0.063,0.938,-396.0,-400.5,-1437.0,,
3_S8,09/05/2023,10:21:14.100,-0.063,-0.125,1.000,,,,,
3_S8,09/05/2023,10:21:14.200,-0.063,-0.063,1.000,,,,,
3_S8,09/05/2023,10:21:14.300,0.000,-0.063,0.938,,,,,
3_S8,09/05/2023,10:21:14.400,-0.063,-0.063,0.938,,,,,
3_S8,09/05/2023,10:21:14.500,0.000,-0.125,0.938,-390.0,-414.0,-1428.0,,
3_S8,09/05/2023,10:21:14.600,0.000,-0.125,1.000,,,,,
3_S8,09/05/2023,10:21:14.700,-0.063,-0.063,0.938,,,,,
3_S8,09/05/2023,10:21:14.800,-0.063,-0.063,1.000,,,,,
3_S8,09/05/2023,10:21:14.900,-0.063,0.000,1.000,,,,,
3_S8,09/05/2023,10:21:15.000,0.000,-0.063,0.938,-387.0,-423.0,-1429.5,,
3_S8,09/05/2023,10:21:15.100,-0.056,-0.119,0.938,,,,,
3_S8,09/05/2023,10:21:15.200,-0.063,-0.075,0.988,,,,,
3_S8,09/05/2023,10:21:15.300,-0.063,-0.063,1.000,,,,,
3_S8,09/05/2023,10:21:15.400,-0.025,-0.100,0.963,,,,,
3_S8,09/05/2023,10:21:15.500,-0.031,-0.094,0.969,-418.5,-388.5,-1429.5,,
3_S8,09/05/2023,10:21:15.600,-0.063,-0.088,1.000,,,,,
3_S8,09/05/2023,10:21:15.700,-0.063,-0.106,0.982,,,,,
3_S8,09/05/2023,10:21:15.800,-0.063,-0.063,0.950,,,,,
3_S8,09/05/2023,10:21:15.900,-0.063,-0.063,1.000,,,,,
3_S8,09/05/2023,10:21:16.000,-0.063,-0.125,1.000,-393.0,-412.5,-1428.0,,
3_S8,09/05/2023,10:21:16.100,-0.063,-0.063,1.000,,,,,
3_S8,09/05/2023,10:21:16.200,-0.063,-0.063,1.000,,,,,
3_S8,09/05/2023,10:21:16.300,0.000,-0.063,0.938,,,,,
3_S8,09/05/2023,10:21:16.400,-0.063,-0.063,0.938,,,,,
3_S8,09/05/2023,10:21:16.500,-0.063,-0.063,0.938,-385.5,-402.0,-1408.5,,
3_S8,09/05/2023,10:21:16.600,-0.063,-0.063,1.000,,,,,
3_S8,09/05/2023,10:21:16.700,-0.063,0.000,0.938,,,,,
3_S8,09/05/2023,10:21:16.800,-0.063,-0.063,1.000,,,,,
3_S8,09/05/2023,10:21:16.900,-0.063,-0.125,0.938,,,,,
3_S8,09/05/2023,10:21:17.000,-0.063,-0.063,0.938,-391.5,-418.5,-1423.5,22,
3_S8,09/05/2023,10:21:17.100,0.000,-0.063,1.000,,,,,
3_S8,09/05/2023,10:21:17.200,0.000,-0.063,0.938,,,,,
3_S8,09/05/2023,10:21:17.300,-0.063,-0.125,1.000,,,,,
3_S8,09/05/2023,10:21:17.400,-0.063,-0.063,0.938,,,,,
3_S8,09/05/2023,10:21:17.500,-0.063,-0.063,1.000,-394.5,-409.5,-1434.0,,
3_S8,09/05/2023,10:21:17.600,-0.063,-0.063,1.000,,,,,
3_S8,09/05/2023,10:21:17.700,0.000,-0.063,1.000,,,,,
3_S8,09/05/2023,10:21:17.800,0.000,-0.063,1.000,,,,,
3_S8,09/05/2023,10:21:17.900,-0.063,-0.125,0.938,,,,,
3_S8,09/05/2023,10:21:18.000,-0.063,-0.063,0.938,-400.5,-415.5,-1419.0,,
3_S8,09/05/2023,10:21:18.100,-0.063,-0.063,0.938,,,,,
3_S8,09/05/2023,10:21:18.200,0.000,0.000,1.000,,,,,
3_S8,09/05/2023,10:21:18.300,0.000,-0.063,0.938,,,,,
3_S8,09/05/2023,10:21:18.400,-0.063,-0.125,0.938,,,,,
3_S8,09/05/2023,10:21:18.500,0.000,-0.063,0.938,-402.0,-403.5,-1441.5,,
3_S8,09/05/2023,10:21:18.600,-0.063,-0.063,1.000,,,,,
3_S8,09/05/2023,10:21:18.700,-0.063,-0.125,0.938,,,,,
3_S8,09/05/2023,10:21:18.800,-0.063,-0.063,0.938,,,,,
3_S8,09/05/2023,10:21:18.900,-0.063,-0.125,1.000,,,,,
3_S8,09/05/2023,10:21:19.000,-0.063,-0.063,1.000,-399.0,-421.5,-1417.5,,
3_S8,09/05/2023,10:21:19.100,-0.006,-0.119,1.000,,,,,
3_S8,09/05/2023,10:21:19.200,-0.050,-0.075,0.950,,,,,
3_S8,09/05/2023,10:21:19.300,-0.063,-0.106,0.982,,,,,
3_S8,09/05/2023,10:21:19.400,-0.063,-0.088,0.963,,,,,
3_S8,09/05/2023,10:21:19.500,-0.063,-0.063,0.969,-396.0,-408.0,-1417.5,,
3_S8,09/05/2023,10:21:19.600,-0.063,-0.063,0.975,,,,,
3_S8,09/05/2023,10:21:19.700,-0.063,-0.063,0.957,,,,,
3_S8,09/05/2023,10:21:19.800,-0.063,-0.063,0.988,,,,,
3_S8,09/05/2023,10:21:19.900,-0.063,-0.063,0.938,,,,,
3_S8,09/05/2023,10:21:20.000,-0.063,-0.063,1.000,-388.5,-415.5,-1431.0,,
3_S8,09/05/2023,10:21:20.100,-0.063,-0.063,1.000,,,,,
3_S8,09/05/2023,10:21:20.200,-0.063,-0.125,0.938,,,,,
3_S8,09/05/2023,10:21:20.300,-0.063,-0.063,0.938,,,,,
3_S8,09/05/2023,10:21:20.400,-0.063,-0.125,1.000,,,,,
3_S8,09/05/2023,10:21:20.500,-0.063,-0.125,1.000,-384.0,-408.0,-1438.5,,
3_S8,09/05/2023,10:21:20.600,-0.063,-0.063,1.000,,,,,
3_S8,09/05/2023,10:21:20.700,0.000,-0.063,0.938,,,,,
3_S8,09/05/2023,10:21:20.800,-0.063,-0.125,0.938,,,,,
3_S8,09/05/2023,10:21:20.900,0.000,-0.063,0.938,,,,,
3_S8,09/05/2023,10:21:21.000,-0.063,-0.125,0.938,-384.0,-423.0,-1416.0,,
3_S8,09/05/2023,10:21:21.100,-0.063,-0.063,0.938,,,,,
3_S8,09/05/2023,10:21:21.200,0.000,-0.063,1.000,,,,,
3_S8,09/05/2023,10:21:21.300,-0.063,-0.063,1.000,,,,,
3_S8,09/05/2023,10:21:21.400,-0.063,-0.063,1.000,,,,,
3_S8,09/05/2023,10:21:21.500,0.000,-0.125,1.000,-396.0,-421.5,-1437.0,,
3_S8,09/05/2023,10:21:21.600,-0.063,0.000,0.938,,,,,
3_S8,09/05/2023,10:21:21.700,-0.063,-0.063,0.938,,,,,
3_S8,09/05/2023,10:21:21.800,-0.063,-0.125,0.938,,,,,
3_S8,09/05/2023,10:21:21.900,0.000,-0.125,1.000,,,,,
3_S8,09/05/2023,10:21:22.000,-0.063,-0.063,0.938,-400.5,-414.0,-1431.0,21,
3_S8,09/05/2023,10:21:22.100,-0.063,-0.063,1.000,,,,,
3_S8,09/05/2023,10:21:22.200,0.000,-0.063,1.000,,,,,
3_S8,09/05/2023,10:21:22.300,-0.063,-0.063,0.938,,,,,
3_S8,09/05/2023,10:21:22.400,-0.063,-0.063,1.000,,,,,
3_S8,09/05/2023,10:21:22.500,-0.063,-0.125,0.938,-390.0,-420.0,-1428.0,,
3_S8,09/05/2023,10:21:22.600,0.000,0.000,1.000,,,,,
3_S8,09/05/2023,10:21:22.700,-0.063,-0.063,1.000,,,,,
3_S8,09/05/2023,10:21:22.800,0.000,-0.063,1.000,,,,,
3_S8,09/05/2023,10:21:22.900,-0.063,-0.125,1.000,,,,,
3_S8,09/05/2023,10:21:23.000,-0.063,-0.125,1.000,-394.5,-409.5,-1411.5,,
3_S8,09/05/2023,10:21:23.100,-0.063,-0.125,1.000,,,,,
3_S8,09/05/2023,10:21:23.200,-0.063,-0.125,0.950,,,,,
3_S8,09/05/2023,10:21:23.300,-0.063,-0.081,0.982,,,,,
3_S8,09/05/2023,10:21:23.400,-0.063,-0.063,0.963,,,,,
3_S8,09/05/2023,10:21:23.500,-0.063,-0.094,0.969,-402.0,-408.0,-1426.5,,
3_S8,09/05/2023,10:21:23.600,-0.063,-0.125,0.975,,,,,
3_S8,09/05/2023,10:21:23.700,-0.063,-0.106,0.938,,,,,
3_S8,09/05/2023,10:21:23.800,-0.063,-0.075,0.950,,,,,
3_S8,09/05/2023,10:21:23.900,-0.063,-0.125,1.000,,,,,
3_S8,09/05/2023,10:21:24.000,-0.063,-0.125,0.938,-388.5,-405.0,-1425.0,,
3_S8,09/05/2023,10:21:24.100,-0.063,-0.063,0.938,,,,,
3_S8,09/05/2023,10:21:24.200,0.000,-0.063,1.000,,,,,
3_S8,09/05/2023,10:21:24.300,-0.063,0.000,1.000,,,,,
3_S8,09/05/2023,10:21:24.400,-0.063,-0.125,0.938,,,,,
3_S8,09/05/2023,10:21:24.500,-0.063,-0.063,1.000,-405.0,-417.0,-1440.0,,
3_S8,09/05/2023,10:21:24.600,0.000,-0.063,1.000,,,,,
3_S8,09/05/2023,10:21:24.700,-0.063,-0.063,0.938,,,,,
3_S8,09/05/2023,10:21:24.800,0.000,-0.063,1.000,,,,,
3_S8,09/05/2023,10:21:24.900,-0.063,-0.063,0.938,,,,,
3_S8,09/05/2023,10:21:25.000,-0.063,-0.063,0.938,-400.5,-415.5,-1435.5,,
3_S8,09/05/2023,10:21:25.100,0.000,-0.063,0.938,,,,,
3_S8,09/05/2023,10:21:25.200,0.000,-0.063,1.000,,,,,
3_S8,09/05/2023,10:21:25.300,-0.063,-0.125,0.938,,,,,
3_S8,09/05/2023,10:21:25.400,-0.063,-0.063,0.938,,,,,
3_S8,09/05/2023,10:21:25.500,-0.063,-0.063,1.000,-402.0,-409.5,-1437.0,,
3_S8,09/05/2023,10:21:25.600,0.000,-0.125,0.938,,,,,
3_S8,09/05/2023,10:21:25.700,0.000,-0.063,1.000,,,,,
3_S8,09/05/2023,10:21:25.800,-0.063,-0.063,1.000,,,,,
3_S8,09/05/2023,10:21:25.900,-0.063,0.000,1.000,,,,,
3_S8,09/05/2023,10:21:26.000,-0.063,-0.125,0.938,-391.5,-421.5,-1416.0,,
3_S8,09/05/2023,10:21:26.100,-0.063,-0.063,0.938,,,,,
3_S8,09/05/2023,10:21:26.200,-0.063,-0.063,1.000,,,,,
3_S8,09/05/2023,10:21:26.300,-0.063,-0.063,0.938,,,,,
3_S8,09/05/2023,10:21:26.400,0.000,-0.063,0.938,,,,,
3_S8,09/05/2023,10:21:26.500,0.000,-0.063,0.938,-411.0,-420.0,-1410.0,,
3_S8,09/05/2023,10:21:26.600,-0.063,-0.063,1.000,,,,,
3_S8,09/05/2023,10:21:26.700,-0.063,-0.063,1.000,,,,,
3_S8,09/05/2023,10:21:26.800,0.000,-0.125,0.938,,,,,
3_S8,09/05/2023,10:21:26.900,-0.063,-0.125,1.000,,,,,
3_S8,09/05/2023,10:21:27.000,0.000,-0.063,0.938,-391.5,-415.5,-1410.0,22,
3_S8,09/05/2023,10:21:27.100,-0.063,-0.063,1.000,,,,,
3_S8,09/05/2023,10:21:27.200,-0.063,-0.063,1.000,,,,,
3_S8,09/05/2023,10:21:27.300,-0.063,-0.125,0.938,,,,,
3_S8,09/05/2023,10:21:27.400,-0.063,-0.063,0.938,,,,,
3_S8,09/05/2023,10:21:27.500,-0.063,0.000,1.000,-390.0,-414.0,-1426.5,,
3_S8,09/05/2023,10:21:27.600,-0.063,-0.063,0.938,,,,,
3_S8,09/05/2023,10:21:27.700,-0.063,-0.063,0.938,,,,,
3_S8,09/05/2023,10:21:27.800,-0.063,-0.125,1.000,,,,,
3_S8,09/05/2023,10:21:27.900,-0.063,-0.063,0.938,,,,,
3_S8,09/05/2023,10:21:28.000,-0.063,-0.063,1.000,-393.0,-421.5,-1419.0,,
3_S8,09/05/2023,10:21:28.100,-0.006,-0.119,1.000,,,,,
3_S8,09/05/2023,10:21:28.200,0.000,-0.125,0.950,,,,,
3_S8,09/05/2023,10:21:28.300,0.000,-0.081,0.982,,,,,
3_S8,09/05/2023,10:21:28.400,-0.038,-0.063,1.000,,,,,
3_S8,09/05/2023,10:21:28.500,-0.063,-0.094,1.000,-391.5,-420.0,-1441.5,,
3_S8,09/05/2023,10:21:28.600,-0.063,-0.100,1.000,,,,,
3_S8,09/05/2023,10:21:28.700,-0.063,-0.063,1.000,,,,,
3_S8,09/05/2023,10:21:28.800,-0.063,-0.050,0.988,,,,,
3_S8,09/05/2023,10:21:28.900,-0.063,0.000,0.938,,,,,
3_S8,09/05/2023,10:21:29.000,-0.063,-0.063,0.938,-390.0,-409.5,-1428.0,,
3_S8,09/05/2023,10:21:29.100,0.000,-0.125,0.938,,,,,
3_S8,09/05/2023,10:21:29.200,-0.063,-0.125,0.938,,,,,
3_S8,09/05/2023,10:21:29.300,-0.063,-0.063,0.938,,,,,
3_S8,09/05/2023,10:21:29.400,-0.063,-0.063,0.938,,,,,
3_S8,09/05/2023,10:21:29.500,-0.063,-0.063,0.938,-385.5,-405.0,-1438.5,,
3_S8,09/05/2023,10:21:29.600,0.000,-0.125,1.000,,,,,
3_S8,09/05/2023,10:21:29.700,-0.063,-0.063,0.938,,,,,
3_S8,09/05/2023,10:21:29.800,-0.063,0.000,0.938,,,,,
3_S8,09/05/2023,10:21:29.900,0.000,-0.125,0.938,,,,,
3_S8,09/05/2023,10:21:30.000,-0.063,-0.063,1.000,-394.5,-415.5,-1422.0,,
3_S8,09/05/2023,10:21:30.100,-0.063,-0.063,0.938,,,,,
3_S8,09/05/2023,10:21:30.200,0.000,-0.063,1.000,,,,,
3_S8,09/05/2023,10:21:30.300,0.000,-0.063,0.938,,,,,
3_S8,09/05/2023,10:21:30.400,-0.063,-0.125,0.938,,,,,
3_S8,09/05/2023,10:21:30.500,-0.063,-0.125,1.000,-397.5,-421.5,-1438.5,,
3_S8,09/05/2023,10:21:30.600,0.000,-0.063,1.000,,,,,
3_S8,09/05/2023,10:21:30.700,-0.063,-0.125,0.938,,,,,
3_S8,09/05/2023,10:21:30.800,-0.063,-0.125,0.938,,,,,
3_S8,09/05/2023,10:21:30.900,-0.063,-0.125,0.938,,,,,
3_S8,09/05/2023,10:21:31.000,-0.063,-0.063,0.938,-394.5,-391.5,-1429.5,,
3_S8,09/05/2023,10:21:31.100,0.000,-0.125,1.000,,,,,
3_S8,09/05/2023,10:21:31.200,0.000,-0.063,1.000,,,,,
3_S8,09/05/2023,10:21:31.300,-0.063,-0.125,1.000,,,,,
3_S8,09/05/2023,10:21:31.400,-0.063,-0.063,1.000,,,,,
3_S8,09/05/2023,10:21:31.500,-0.063,-0.125,1.000,-390.0,-403.5,-1420.5,,
3_S8,09/05/2023,10:21:31.600,-0.063,-0.063,0.938,,,,,
3_S8,09/05/2023,10:21:31.700,-0.063,0.000,1.000,,,,,
3_S8,09/05/2023,10:21:31.800,-0.063,0.000,0.938,,,,,
3_S8,09/05/2023,10:21:31.900,-0.063,-0.125,1.000,,,,,
3_S8,09/05/2023,10:21:32.000,-0.063,-0.063,0.938,-394.5,-417.0,-1429.5,21,
3_S8,09/05/2023,10:21:32.100,-0.063,-0.063,0.938,,,,,
3_S8,09/05/2023,10:21:32.200,-0.063,-0.063,0.938,,,,,
3_S8,09/05/2023,10:21:32.300,-0.063,-0.063,0.982,,,,,
3_S8,09/05/2023,10:21:32.400,-0.063,-0.100,0.963,,,,,
3_S8,09/05/2023,10:21:32.500,-0.063,-0.094,0.969,-388.5,-427.5,-1425.0,,
3_S8,09/05/2023,10:21:32.600,-0.063,-0.088,0.975,,,,,
3_S8,09/05/2023,10:21:32.700,-0.063,-0.106,0.938,,,,,
3_S8,09/05/2023,10:21:32.800,-0.063,-0.063,0.950,,,,,
3_S8,09/05/2023,10:21:32.900,-0.063,-0.063,1.000,,,,,
3_S8,09/05/2023,10:21:33.000,-0.063,-0.063,0.938,-415.5,-417.0,-1405.5,,
3_S8,09/05/2023,10:21:33.100,-0.063,-0.063,0.938,,,,,
3_S8,09/05/2023,10:21:33.200,-0.063,-0.063,1.000,,,,,
3_S8,09/05/2023,10:21:33.300,0.000,-0.063,1.000,,,,,
3_S8,09/05/2023,10:21:33.400,-0.063,-0.063,1.000,,,,,
3_S8,09/05/2023,10:21:33.500,-0.063,-0.125,0.938,-394.5,-412.5,-1413.0,,
3_S8,09/05/2023,10:21:33.600,-0.063,-0.063,0.938,,,,,
3_S8,09/05/2023,10:21:33.700,0.000,-0.063,1.000,,,,,
3_S8,09/05/2023,10:21:33.800,-0.063,-0.125,1.000,,,,,
3_S8,09/05/2023,10:21:33.900,-0.063,-0.063,0.938,,,,,
3_S8,09/05/2023,10:21:34.000,0.000,-0.125,1.000,-400.5,-423.0,-1417.5,,
3_S8,09/05/2023,10:21:34.100,-0.063,-0.063,1.000,,,,,
3_S8,09/05/2023,10:21:34.200,-0.063,-0.063,1.000,,,,,
3_S8,09/05/2023,10:21:34.300,-0.063,-0.063,1.000,,,,,
3_S8,09/05/2023,10:21:34.400,-0.063,-0.063,0.938,,,,,
3_S8,09/05/2023,10:21:34.500,-0.063,-0.063,1.000,-412.5,-411.0,-1438.5,,
3_S8,09/05/2023,10:21:34.600,-0.063,-0.063,1.000,,,,,
3_S8,09/05/2023,10:21:34.700,0.000,-0.063,1.000,,,,,
3_S8,09/05/2023,10:21:34.800,-0.063,-0.063,1.000,,,,,
3_S8,09/05/2023,10:21:34.900,-0.063,-0.063,1.000,,,,,
3_S8,09/05/2023,10:21:35.000,-0.063,-0.063,1.000,-394.5,-405.0,-1420.5,,
3_S8,09/05/2023,10:21:35.100,-0.063,-0.063,0.938,,,,,
3_S8,09/05/2023,10:21:35.200,0.000,0.000,0.938,,,,,
3_S8,09/05/2023,10:21:35.300,-0.063,-0.063,0.938,,,,,
3_S8,09/05/2023,10:21:35.400,0.000,-0.125,1.000,,,,,
3_S8,09/05/2023,10:21:35.500,-0.063,-0.063,1.000,-405.0,-429.0,-1443.0,,
3_S8,09/05/2023,10:21:35.600,-0.063,-0.063,1.000,,,,,
3_S8,09/05/2023,10:21:35.700,-0.063,-0.125,1.000,,,,,
3_S8,09/05/2023,10:21:35.800,-0.063,-0.063,1.000,,,,,
3_S8,09/05/2023,10:21:35.900,-0.063,-0.063,1.000,,,,,
3_S8,09/05/2023,10:21:36.000,-0.063,-0.063,1.000,-391.5,-421.5,-1425.0,,
3_S8,09/05/2023,10:21:36.100,-0.063,-0.063,1.000,,,,,
3_S8,09/05/2023,10:21:36.200,-0.063,-0.013,1.000,,,,,
3_S8,09/05/2023,10:21:36.300,-0.019,-0.044,0.957,,,,,
3_S8,09/05/2023,10:21:36.400,-0.038,-0.063,0.975,,,,,
3_S8,09/05/2023,10:21:36.500,-0.063,-0.063,1.000,-403.5,-430.5,-1411.5,,
3_S8,09/05/2023,10:21:36.600,-0.063,-0.088,0.975,,,,,
3_S8,09/05/2023,10:21:36.700,-0.063,-0.125,0.938,,,,,
3_S8,09/05/2023,10:21:36.800,-0.050,-0.125,0.950,,,,,
3_S8,09/05/2023,10:21:36.900,0.000,-0.125,1.000,,,,,
3_S8,09/05/2023,10:21:37.000,0.000,-0.125,0.938,-397.5,-399.0,-1413.0,22,
3_S8,09/05/2023,10:21:37.100,0.000,-0.063,0.938,,,,,
3_S8,09/05/2023,10:21:37.200,-0.063,-0.063,0.938,,,,,
3_S8,09/05/2023,10:21:37.300,-0.063,-0.125,0.938,,,,,
3_S8,09/05/2023,10:21:37.400,-0.063,-0.063,1.000,,,,,
3_S8,09/05/2023,10:21:37.500,-0.063,-0.063,0.938,-384.0,-391.5,-1414.5,,
3_S8,09/05/2023,10:21:37.600,0.000,-0.125,1.000,,,,,
3_S8,09/05/2023,10:21:37.700,-0.063,-0.063,1.000,,,,,
3_S8,09/05/2023,10:21:37.800,-0.063,-0.063,1.000,,,,,
3_S8,09/05/2023,10:21:37.900,-0.063,-0.063,1.000,,,,,
3_S8,09/05/2023,10:21:38.000,-0.063,-0.125,1.000,-406.5,-406.5,-1425.0,,
3_S8,09/05/2023,10:21:38.100,-0.063,-0.063,0.938,,,,,
3_S8,09/05/2023,10:21:38.200,-0.063,-0.063,0.938,,,,,
3_S8,09/05/2023,10:21:38.300,-0.063,-0.125,0.938,,,,,
3_S8,09/05/2023,10:21:38.400,-0.063,-0.125,1.000,,,,,
3_S8,09/05/2023,10:21:38.500,0.000,-0.125,0.938,-399.0,-405.0,-1423.5,,
3_S8,09/05/2023,10:21:38.600,0.000,-0.125,1.000,,,,,
3_S8,09/05/2023,10:21:38.700,-0.063,-0.063,0.938,,,,,
3_S8,09/05/2023,10:21:38.800,-0.063,-0.125,0.938,,,,,
3_S8,09/05/2023,10:21:38.900,-0.063,0.000,1.000,,,,,
3_S8,09/05/2023,10:21:39.000,-0.063,0.000,1.000,-385.5,-408.0,-1425.0,,
3_S8,09/05/2023,10:21:39.100,-0.063,-0.063,0.938,,,,,
3_S8,09/05/2023,10:21:39.200,-0.063,-0.063,1.000,,,,,
3_S8,09/05/2023,10:21:39.300,0.000,-0.125,1.000,,,,,
3_S8,09/05/2023,10:21:39.400,-0.063,-0.063,0.938,,,,,
3_S8,09/05/2023,10:21:39.500,-0.063,0.000,1.000,-402.0,-405.0,-1425.0,,
3_S8,09/05/2023,10:21:39.600,0.000,-0.125,1.000,,,,,
3_S8,09/05/2023,10:21:39.700,0.000,-0.063,0.938,,,,,
3_S8,09/05/2023,10:21:39.800,-0.063,-0.125,0.938,,,,,
3_S8,09/05/2023,10:21:39.900,-0.063,-0.063,1.000,,,,,
3_S8,09/05/2023,10:21:40.000,-0.063,-0.063,1.000,-394.5,-418.5,-1429.5,,
3_S8,09/05/2023,10:21:40.100,-0.063,-0.063,0.944,,,,,
3_S8,09/05/2023,10:21:40.200,-0.063,-0.063,0.938,,,,,
3_S8,09/05/2023,10:21:40.300,-0.063,-0.106,0.982,,,,,
3_S8,09/05/2023,10:21:40.400,-0.025,-0.088,1.000,,,,,
3_S8,09/05/2023,10:21:40.500,-0.031,-0.094,1.000,-378.0,-411.0,-1417.5,,
3_S8,09/05/2023,10:21:40.600,-0.063,-0.100,0.975,,,,,
3_S8,09/05/2023,10:21:40.700,-0.044,-0.063,0.938,,,,,
3_S8,09/05/2023,10:21:40.800,-0.013,-0.063,0.938,,,,,
3_S8,09/05/2023,10:21:40.900,-0.063,-0.063,0.938,,,,,
3_S8,09/05/2023,10:21:41.000,-0.063,-0.125,0.938,-375.0,-411.0,-1420.5,,
3_S8,09/05/2023,10:21:41.100,0.000,-0.063,1.000,,,,,
3_S8,09/05/2023,10:21:41.200,-0.063,-0.125,1.000,,,,,
3_S8,09/05/2023,10:21:41.300,0.000,-0.125,0.938,,,,,
3_S8,09/05/2023,10:21:41.400,-0.063,-0.063,0.938,,,,,
3_S8,09/05/2023,10:21:41.500,-0.063,-0.125,0.938,-382.5,-399.0,-1428.0,,
3_S8,09/05/2023,10:21:41.600,-0.063,-0.125,1.000,,,,,
3_S8,09/05/2023,10:21:41.700,-0.063,-0.125,1.000,,,,,
3_S8,09/05/2023,10:21:41.800,-0.063,-0.063,0.938,,,,,
3_S8,09/05/2023,10:21:41.900,-0.063,-0.063,0.938,,,,,
3_S8,09/05/2023,10:21:42.000,-0.063,-0.063,1.000,-396.0,-429.0,-1429.5,22,
3_S8,09/05/2023,10:21:42.100,-0.063,-0.125,1.000,,,,,
3_S8,09/05/2023,10:21:42.200,-0.063,-0.125,1.000,,,,,
3_S8,09/05/2023,10:21:42.300,-0.063,-0.125,1.000,,,,,
3_S8,09/05/2023,10:21:42.400,0.000,-0.063,0.938,,,,,
3_S8,09/05/2023,10:21:42.500,-0.063,-0.063,1.000,-399.0,-403.5,-1437.0,,
3_S8,09/05/2023,10:21:42.600,-0.063,-0.063,0.938,,,,,
3_S8,09/05/2023,10:21:42.700,-0.063,-0.063,0.938,,,,,
3_S8,09/05/2023,10:21:42.800,-0.063,-0.063,1.000,,,,,
3_S8,09/05/2023,10:21:42.900,-0.063,-0.125,0.938,,,,,
3_S8,09/05/2023,10:21:43.000,-0.063,-0.125,1.000,-405.0,-408.0,-1440.0,,
3_S8,09/05/2023,10:21:43.100,-0.063,-0.063,1.000,,,,,
3_S8,09/05/2023,10:21:43.200,-0.063,-0.125,0.938,,,,,
3_S8,09/05/2023,10:21:43.300,-0.063,-0.063,1.000,,,,,
3_S8,09/05/2023,10:21:43.400,-0.063,-0.063,0.938,,,,,
3_S8,09/05/2023,10:21:43.500,-0.063,-0.125,1.000,-400.5,-406.5,-1408.5,,
3_S8,09/05/2023,10:21:43.600,-0.063,-0.063,1.000,,,,,
3_S8,09/05/2023,10:21:43.700,-0.063,-0.063,1.000,,,,,
3_S8,09/05/2023,10:21:43.800,-0.063,-0.063,0.938,,,,,
3_S8,09/05/2023,10:21:43.900,-0.063,-0.063,1.000,,,,,
3_S8,09/05/2023,10:21:44.000,-0.063,-0.063,1.000,-400.5,-411.0,-1419.0,,
3_S8,09/05/2023,10:21:44.100,-0.006,-0.063,1.000,,,,,
3_S8,09/05/2023,10:21:44.200,-0.050,-0.063,0.950,,,,,
3_S8,09/05/2023,10:21:44.300,-0.019,-0.106,0.982,,,,,
3_S8,09/05/2023,10:21:44.400,-0.038,-0.088,0.963,,,,,
3_S8,09/05/2023,10:21:44.500,-0.063,-0.094,0.969,-394.5,-417.0,-1437.0,,
3_S8,09/05/2023,10:21:44.600,-0.038,-0.125,1.000,,,,,
3_S8,09/05/2023,10:21:44.700,-0.019,-0.106,1.000,,,,,
3_S8,09/05/2023,10:21:44.800,-0.063,-0.063,0.988,,,,,
3_S8,09/05/2023,10:21:44.900,-0.063,-0.063,0.938,,,,,
3_S8,09/05/2023,10:21:45.000,-0.063,-0.125,1.000,-385.5,-411.0,-1420.5,,
3_S8,09/05/2023,10:21:45.100,-0.063,-0.125,1.000,,,,,
3_S8,09/05/2023,10:21:45.200,-0.063,-0.125,0.938,,,,,
3_S8,09/05/2023,10:21:45.300,-0.063,0.000,1.000,,,,,
3_S8,09/05/2023,10:21:45.400,0.000,-0.063,1.000,,,,,
3_S8,09/05/2023,10:21:45.500,-0.063,-0.063,1.000,-396.0,-406.5,-1429.5,,
3_S8,09/05/2023,10:21:45.600,-0.063,-0.063,0.938,,,,,
3_S8,09/05/2023,10:21:45.700,0.000,-0.063,1.000,,,,,
3_S8,09/05/2023,10:21:45.800,-0.063,-0.063,1.000,,,,,
3_S8,09/05/2023,10:21:45.900,-0.063,0.000,0.938,,,,,
3_S8,09/05/2023,10:21:46.000,0.000,-0.063,1.000,-397.5,-411.0,-1404.0,,
3_S8,09/05/2023,10:21:46.100,-0.063,-0.063,0.938,,,,,
3_S8,09/05/2023,10:21:46.200,-0.063,-0.125,1.000,,,,,
3_S8,09/05/2023,10:21:46.300,-0.063,-0.125,1.000,,,,,
3_S8,09/05/2023,10:21:46.400,0.000,-0.125,1.000,,,,,
3_S8,09/05/2023,10:21:46.500,-0.063,-0.063,0.938,-382.5,-408.0,-1423.5,,
3_S8,09/05/2023,10:21:46.600,-0.063,-0.125,1.000,,,,,
3_S8,09/05/2023,10:21:46.700,0.000,-0.063,1.000,,,,,
3_S8,09/05/2023,10:21:46.800,0.000,-0.063,1.000,,,,,
3_S8,09/05/2023,10:21:46.900,0.000,-0.063,0.938,,,,,
3_S8,09/05/2023,10:21:47.000,-0.063,-0.125,0.938,-391.5,-415.5,-1417.5,22,
3_S8,09/05/2023,10:21:47.100,0.000,-0.063,1.000,,,,,
3_S8,09/05/2023,10:21:47.200,-0.063,-0.063,1.000,,,,,
3_S8,09/05/2023,10:21:47.300,-0.063,-0.063,1.000,,,,,
3_S8,09/05/2023,10:21:47.400,-0.063,-0.063,0.938,,,,,
3_S8,09/05/2023,10:21:47.500,-0.063,-0.063,0.938,-400.5,-426.0,-1435.5,,
3_S8,09/05/2023,10:21:47.600,0.000,-0.063,1.000,,,,,
3_S8,09/05/2023,10:21:47.700,0.000,-0.063,0.938,,,,,
3_S8,09/05/2023,10:21:47.800,-0.063,-0.063,1.000,,,,,
3_S8,09/05/2023,10:21:47.900,-0.063,-0.063,1.000,,,,,
3_S8,09/05/2023,10:21:48.000,-0.063,-0.063,0.938,-394.5,-418.5,-1423.5,,
3_S8,09/05/2023,10:21:48.100,-0.063,-0.063,0.994,,,,,
3_S8,09/05/2023,10:21:48.200,-0.013,-0.113,1.000,,,,,
3_S8,09/05/2023,10:21:48.300,0.000,-0.081,0.957,,,,,
3_S8,09/05/2023,10:21:48.400,-0.038,-0.063,0.975,,,,,
3_S8,09/05/2023,10:21:48.500,-0.063,-0.094,0.969,-391.5,-417.0,-1419.0,,
3_S8,09/05/2023,10:21:48.600,-0.063,-0.125,0.938,,,,,
3_S8,09/05/2023,10:21:48.700,-0.063,-0.106,0.957,,,,,
3_S8,09/05/2023,10:21:48.800,-0.063,-0.075,0.988,,,,,
3_S8,09/05/2023,10:21:48.900,-0.063,-0.125,0.938,,,,,
3_S8,09/05/2023,10:21:49.000,-0.063,0.000,0.938,-387.0,-408.0,-1417.5,,
3_S8,09/05/2023,10:21:49.100,-0.063,-0.063,1.000,,,,,
3_S8,09/05/2023,10:21:49.200,-0.063,-0.125,0.938,,,,,
3_S8,09/05/2023,10:21:49.300,-0.063,-0.063,0.938,,,,,
3_S8,09/05/2023,10:21:49.400,0.000,-0.063,0.938,,,,,
3_S8,09/05/2023,10:21:49.500,-0.063,-0.125,1.000,-405.0,-403.5,-1410.0,,
3_S8,09/05/2023,10:21:49.600,-0.063,-0.063,1.000,,,,,
3_S8,09/05/2023,10:21:49.700,0.000,-0.063,0.938,,,,,
3_S8,09/05/2023,10:21:49.800,0.000,0.000,0.938,,,,,
3_S8,09/05/2023,10:21:49.900,0.000,-0.125,1.000,,,,,
3_S8,09/05/2023,10:21:50.000,-0.063,-0.063,1.000,-399.0,-421.5,-1429.5,,
3_S8,09/05/2023,10:21:50.100,-0.063,-0.063,1.000,,,,,
3_S8,09/05/2023,10:21:50.200,-0.063,-0.063,0.938,,,,,
3_S8,09/05/2023,10:21:50.300,-0.063,-0.063,1.000,,,,,
3_S8,09/05/2023,10:21:50.400,-0.063,-0.125,1.000,,,,,
3_S8,09/05/2023,10:21:50.500,-0.063,-0.125,1.000,-385.5,-414.0,-1426.5,,
3_S8,09/05/2023,10:21:50.600,-0.063,-0.063,0.938,,,,,
3_S8,09/05/2023,10:21:50.700,-0.063,-0.063,0.938,,,,,
3_S8,09/05/2023,10:21:50.800,-0.063,-0.063,1.000,,,,,
3_S8,09/05/2023,10:21:50.900,-0.063,0.000,1.000,,,,,
3_S8,09/05/2023,10:21:51.000,-0.063,-0.063,0.938,-387.0,-411.0,-1417.5,,
3_S8,09/05/2023,10:21:51.100,-0.063,-0.125,0.938,,,,,
3_S8,09/05/2023,10:21:51.200,-0.063,-0.063,0.938,,,,,
3_S8,09/05/2023,10:21:51.300,-0.063,-0.125,0.938,,,,,
3_S8,09/05/2023,10:21:51.400,0.000,-0.063,1.000,,,,,
3_S8,09/05/2023,10:21:51.500,0.000,-0.063,1.000,-412.5,-420.0,-1426.5,,
3_S8,09/05/2023,10:21:51.600,0.000,-0.125,1.000,,,,,
3_S8,09/05/2023,10:21:51.700,-0.063,-0.063,0.938,,,,,
3_S8,09/05/2023,10:21:51.800,-0.063,-0.063,1.000,,,,,
3_S8,09/05/2023,10:21:51.900,-0.063,-0.063,1.000,,,,,
3_S8,09/05/2023,10:21:52.000,-0.063,-0.063,0.938,-400.5,-406.5,-1419.0,22,
3_S8,09/05/2023,10:21:52.100,-0.006,-0.119,0.994,,,,,
3_S8,09/05/2023,10:21:52.200,-0.050,-0.075,0.950,,,,,
3_S8,09/05/2023,10:21:52.300,-0.019,-0.063,0.938,,,,,
3_S8,09/05/2023,10:21:52.400,-0.038,-0.100,0.938,,,,,
3_S8,09/05/2023,10:21:52.500,-0.063,-0.125,0.938,-412.5,-408.0,-1417.5,,
3_S8,09/05/2023,10:21:52.600,-0.038,-0.125,0.938,,,,,
3_S8,09/05/2023,10:21:52.700,-0.019,-0.125,0.957,,,,,
3_S8,09/05/2023,10:21:52.800,-0.063,-0.125,1.000,,,,,
3_S8,09/05/2023,10:21:52.900,-0.063,-0.125,1.000,,,,,
3_S8,09/05/2023,10:21:53.000,-0.063,-0.125,0.938,-420.0,-409.5,-1431.0,,
3_S8,09/05/2023,10:21:53.100,0.000,-0.063,1.000,,,,,
3_S8,09/05/2023,10:21:53.200,-0.063,-0.125,0.938,,,,,
3_S8,09/05/2023,10:21:53.300,-0.063,-0.063,1.063,,,,,
3_S8,09/05/2023,10:21:53.400,-0.063,-0.125,0.938,,,,,
3_S8,09/05/2023,10:21:53.500,-0.063,-0.063,0.938,-408.0,-393.0,-1429.5,,
3_S8,09/05/2023,10:21:53.600,-0.063,-0.063,1.000,,,,,
3_S8,09/05/2023,10:21:53.700,-0.063,-0.063,0.938,,,,,
3_S8,09/05/2023,10:21:53.800,0.000,0.000,0.938,,,,,
3_S8,09/05/2023,10:21:53.900,0.000,-0.125,0.938,,,,,
3_S8,09/05/2023,10:21:54.000,-0.063,-0.125,0.938,-390.0,-412.5,-1408.5,,
3_S8,09/05/2023,10:21:54.100,-0.063,-0.063,0.938,,,,,
3_S8,09/05/2023,10:21:54.200,-0.063,-0.063,1.000,,,,,
3_S8,09/05/2023,10:21:54.300,0.000,-0.125,0.938,,,,,
3_S8,09/05/2023,10:21:54.400,-0.063,-0.063,0.938,,,,,
3_S8,09/05/2023,10:21:54.500,-0.063,-0.063,0.938,-402.0,-408.0,-1419.0,,
3_S8,09/05/2023,10:21:54.600,-0.063,-0.063,0.938,,,,,
3_S8,09/05/2023,10:21:54.700,-0.063,-0.125,1.000,,,,,
3_S8,09/05/2023,10:21:54.800,-0.063,-0.063,0.938,,,,,
3_S8,09/05/2023,10:21:54.900,-0.063,-0.063,1.000,,,,,
3_S8,09/05/2023,10:21:55.000,-0.063,-0.063,0.938,-408.0,-402.0,-1414.5,,
3_S8,09/05/2023,10:21:55.100,-0.063,-0.063,1.000,,,,,
3_S8,09/05/2023,10:21:55.200,-0.063,-0.063,1.000,,,,,
3_S8,09/05/2023,10:21:55.300,-0.063,-0.063,1.000,,,,,
3_S8,09/05/2023,10:21:55.400,-0.063,-0.125,0.938,,,,,
3_S8,09/05/2023,10:21:55.500,-0.063,-0.063,0.938,-397.5,-406.5,-1434.0,,
3_S8,09/05/2023,10:21:55.600,-0.063,-0.063,0.938,,,,,
3_S8,09/05/2023,10:21:55.700,-0.063,-0.063,0.938,,,,,
3_S8,09/05/2023,10:21:55.800,-0.063,-0.063,0.938,,,,,
3_S8,09/05/2023,10:21:55.900,-0.063,-0.063,0.938,,,,,
3_S8,09/05/2023,10:21:56.000,-0.063,-0.063,0.938,-378.0,-408.0,-1440.0,,
3_S8,09/05/2023,10:21:56.100,-0.063,-0.063,0.938,,,,,
3_S8,09/05/2023,10:21:56.200,-0.063,-0.113,0.938,,,,,
3_S8,09/05/2023,10:21:56.300,-0.063,-0.081,0.982,,,,,
3_S8,09/05/2023,10:21:56.400,-0.063,-0.063,1.000,,,,,
3_S8,09/05/2023,10:21:56.500,-0.063,-0.094,0.969,-414.0,-405.0,-1419.0,,
3_S8,09/05/2023,10:21:56.600,-0.063,-0.125,0.963,,,,,
3_S8,09/05/2023,10:21:56.700,-0.063,-0.125,0.982,,,,,
3_S8,09/05/2023,10:21:56.800,-0.063,-0.125,0.938,,,,,
3_S8,09/05/2023,10:21:56.900,-0.063,-0.125,0.938,,,,,
3_S8,09/05/2023,10:21:57.000,-0.063,-0.063,0.938,-394.5,-400.5,-1416.0,22,
3_S8,09/05/2023,10:21:57.100,-0.063,-0.125,1.000,,,,,
3_S8,09/05/2023,10:21:57.200,0.000,-0.063,1.000,,,,,
3_S8,09/05/2023,10:21:57.300,-0.063,-0.125,1.000,,,,,
3_S8,09/05/2023,10:21:57.400,-0.063,-0.063,1.000,,,,,
3_S8,09/05/2023,10:21:57.500,-0.063,-0.125,0.938,-393.0,-406.5,-1417.5,,
3_S8,09/05/2023,10:21:57.600,0.000,-0.125,1.000,,,,,
3_S8,09/05/2023,10:21:57.700,-0.063,-0.125,1.000,,,,,
3_S8,09/05/2023,10:21:57.800,-0.063,-0.063,1.000,,,,,
3_S8,09/05/2023,10:21:57.900,-0.063,-0.125,1.000,,,,,
3_S8,09/05/2023,10:21:58.000,-0.063,-0.125,0.938,-391.5,-412.5,-1422.0,,
3_S8,09/05/2023,10:21:58.100,-0.063,-0.125,1.000,,,,,
3_S8,09/05/2023,10:21:58.200,-0.063,-0.125,1.000,,,,,
3_S8,09/05/2023,10:21:58.300,-0.063,-0.063,1.000,,,,,
3_S8,09/05/2023,10:21:58.400,0.000,-0.063,1.000,,,,,
3_S8,09/05/2023,10:21:58.500,0.000,-0.063,1.000,-397.5,-417.0,-1416.0,,
3_S8,09/05/2023,10:21:58.600,-0.063,-0.063,0.938,,,,,
3_S8,09/05/2023,10:21:58.700,-0.063,-0.063,0.938,,,,,
3_S8,09/05/2023,10:21:58.800,-0.063,-0.063,0.938,,,,,
3_S8,09/05/2023,10:21:58.900,-0.063,-0.063,0.938,,,,,
3_S8,09/05/2023,10:21:59.000,-0.063,-0.125,1.000,-390.0,-412.5,-1419.0,,
3_S8,09/05/2023,10:21:59.100,-0.063,-0.063,0.938,,,,,
3_S8,09/05/2023,10:21:59.200,-0.063,-0.125,0.938,,,,,
3_S8,09/05/2023,10:21:59.300,-0.063,-0.063,0.938,,,,,
3_S8,09/05/2023,10:21:59.400,0.000,-0.125,0.938,,,,,
3_S8,09/05/2023,10:21:59.500,-0.063,-0.125,0.938,-393.0,-399.0,-1438.5,,
3_S8,09/05/2023,10:21:59.600,-0.063,-0.063,0.938,,,,,
3_S8,09/05/2023,10:21:59.700,-0.063,-0.063,0.938,,,,,
3_S8,09/05/2023,10:21:59.800,0.000,-0.063,0.938,,,,,
3_S8,09/05/2023,10:21:59.900,-0.063,-0.125,1.000,,,,,
3_S8,09/05/2023,10:22:00.000,-0.063,-0.063,0.938,-406.5,-400.5,-1416.0,,
3_S8,09/05/2023,10:22:00.100,-0.063,-0.119,0.938,,,,,
3_S8,09/05/2023,10:22:00.200,-0.063,-0.075,0.988,,,,,
3_S8,09/05/2023,10:22:00.300,-0.019,-0.106,0.957,,,,,
3_S8,09/05/2023,10:22:00.400,-0.038,-0.088,0.975,,,,,
3_S8,09/05/2023,10:22:00.500,-0.063,-0.063,0.938,-394.5,-385.5,-1419.0,,
3_S8,09/05/2023,10:22:00.600,-0.038,-0.063,0.925,,,,,
3_S8,09/05/2023,10:22:00.700,-0.019,-0.063,0.982,,,,,
3_S8,09/05/2023,10:22:00.800,-0.063,-0.075,0.938,,,,,
3_S8,09/05/2023,10:22:00.900,-0.063,-0.125,0.938,,,,,
3_S8,09/05/2023,10:22:01.000,-0.063,-0.063,0.938,-394.5,-394.5,-1410.0,,
3_S8,09/05/2023,10:22:01.100,-0.063,-0.063,1.000,,,,,
3_S8,09/05/2023,10:22:01.200,-0.063,-0.063,1.000,,,,,
3_S8,09/05/2023,10:22:01.300,-0.063,-0.125,0.938,,,,,
3_S8,09/05/2023,10:22:01.400,0.000,-0.063,1.000,,,,,
3_S8,09/05/2023,10:22:01.500,-0.063,-0.063,1.000,-376.5,-391.5,-1405.5,,
3_S8,09/05/2023,10:22:01.600,-0.063,-0.063,0.938,,,,,
3_S8,09/05/2023,10:22:01.700,0.000,-0.063,0.938,,,,,
3_S8,09/05/2023,10:22:01.800,-0.063,-0.063,1.000,,,,,
3_S8,09/05/2023,10:22:01.900,-0.063,-0.063,0.938,,,,,
3_S8,09/05/2023,10:22:02.000,0.000,-0.063,0.938,-414.0,-390.0,-1425.0,21,
3_S8,09/05/2023,10:22:02.100,-0.063,-0.063,1.000,,,,,
3_S8,09/05/2023,10:22:02.200,-0.063,-0.063,0.938,,,,,
3_S8,09/05/2023,10:22:02.300,-0.063,-0.125,0.938,,,,,
3_S8,09/05/2023,10:22:02.400,-0.063,-0.063,1.000,,,,,
3_S8,09/05/2023,10:22:02.500,-0.063,-0.063,0.938,-471.0,-351.0,-1425.0,,
3_S8,09/05/2023,10:22:02.600,-0.063,-0.063,0.938,,,,,
3_S8,09/05/2023,10:22:02.700,-0.063,-0.125,1.000,,,,,
3_S8,09/05/2023,10:22:02.800,-0.063,-0.125,0.938,,,,,
3_S8,09/05/2023,10:22:02.900,-0.063,-0.188,1.000,,,,,
3_S8,09/05/2023,10:22:03.000,0.000,-0.125,1.000,-1206.0,1168.5,-1681.5,,
3_S8,09/05/2023,10:22:03.100,-0.063,-0.125,1.000,,,,,
3_S8,09/05/2023,10:22:03.200,0.000,-0.188,0.875,,,,,
3_S8,09/05/2023,10:22:03.300,-0.250,0.063,0.813,,,,,
3_S8,09/05/2023,10:22:03.400,0.125,0.000,1.063,,,,,
3_S8,09/05/2023,10:22:03.500,0.000,-0.125,0.938,-630.0,2260.5,-2296.5,,
3_S8,09/05/2023,10:22:03.600,0.000,-0.063,0.938,,,,,
3_S8,09/05/2023,10:22:03.700,0.000,-0.125,0.938,,,,,
3_S8,09/05/2023,10:22:03.800,0.000,-0.063,1.000,,,,,
3_S8,09/05/2023,10:22:03.900,0.000,-0.063,1.000,,,,,
3_S8,09/05/2023,10:22:04.000,0.000,-0.125,0.938,-640.5,2251.5,-2296.5,,
3_S8,09/05/2023,10:22:04.100,0.000,-0.069,0.994,,,,,
3_S8,09/05/2023,10:22:04.200,0.000,-0.113,0.950,,,,,
3_S8,09/05/2023,10:22:04.300,0.000,-0.125,0.982,,,,,
3_S8,09/05/2023,10:22:04.400,-0.038,-0.088,0.963,,,,,
3_S8,09/05/2023,10:22:04.500,-0.031,-0.063,0.938,-637.5,2271.0,-2295.0,,
3_S8,09/05/2023,10:22:04.600,0.000,-0.063,0.938,,,,,
3_S8,09/05/2023,10:22:04.700,0.000,-0.063,0.957,,,,,
3_S8,09/05/2023,10:22:04.800,0.000,-0.050,0.988,,,,,
3_S8,09/05/2023,10:22:04.900,0.000,0.000,0.938,,,,,
3_S8,09/05/2023,10:22:05.000,0.000,-0.125,0.938,-627.0,2251.5,-2298.0,,
3_S8,09/05/2023,10:22:05.100,0.000,-0.063,1.000,,,,,
3_S8,09/05/2023,10:22:05.200,0.000,-0.063,1.000,,,,,
3_S8,09/05/2023,10:22:05.300,0.000,-0.125,0.938,,,,,
3_S8,09/05/2023,10:22:05.400,0.000,-0.125,1.000,,,,,
3_S8,09/05/2023,10:22:05.500,0.000,-0.063,0.938,-625.5,2244.0,-2305.5,,
3_S8,09/05/2023,10:22:05.600,0.000,-0.063,0.938,,,,,
3_S8,09/05/2023,10:22:05.700,0.000,-0.063,1.000,,,,,
3_S8,09/05/2023,10:22:05.800,0.000,-0.063,1.000,,,,,
3_S8,09/05/2023,10:22:05.900,0.000,-0.063,1.000,,,,,
3_S8,09/05/2023,10:22:06.000,0.000,-0.125,1.000,-610.5,2244.0,-2278.5,,
3_S8,09/05/2023,10:22:06.100,0.000,-0.063,0.938,,,,,
3_S8,09/05/2023,10:22:06.200,0.000,-0.125,0.938,,,,,
3_S8,09/05/2023,10:22:06.300,0.000,-0.063,0.938,,,,,
3_S8,09/05/2023,10:22:06.400,0.000,-0.125,1.000,,,,,
3_S8,09/05/2023,10:22:06.500,0.000,-0.063,0.938,-622.5,2253.0,-2293.5,,
3_S8,09/05/2023,10:22:06.600,0.000,-0.063,1.000,,,,,
3_S8,09/05/2023,10:22:06.700,0.000,-0.125,1.000,,,,,
3_S8,09/05/2023,10:22:06.800,0.000,-0.063,1.000,,,,,
3_S8,09/05/2023,10:22:06.900,0.000,-0.063,1.000,,,,,
3_S8,09/05/2023,10:22:07.000,0.000,-0.125,1.000,-639.0,2247.0,-2307.0,22,
3_S8,09/05/2023,10:22:07.100,0.000,-0.063,0.938,,,,,
3_S8,09/05/2023,10:22:07.200,-0.063,-0.063,0.938,,,,,
3_S8,09/05/2023,10:22:07.300,0.000,-0.125,1.000,,,,,
3_S8,09/05/2023,10:22:07.400,0.000,-0.125,1.000,,,,,
3_S8,09/05/2023,10:22:07.500,0.000,-0.063,1.000,-633.0,2266.5,-2307.0,,
3_S8,09/05/2023,10:22:07.600,0.000,-0.125,0.938,,,,,
3_S8,09/05/2023,10:22:07.700,0.000,-0.125,0.938,,,,,
3_S8,09/05/2023,10:22:07.800,0.000,-0.063,0.938,,,,,
3_S8,09/05/2023,10:22:07.900,0.000,0.000,1.000,,,,,
3_S8,09/05/2023,10:22:08.000,0.000,-0.063,0.938,-625.5,2253.0,-2311.5,,
3_S8,09/05/2023,10:22:08.100,0.000,-0.119,0.994,,,,,
3_S8,09/05/2023,10:22:08.200,0.000,-0.075,1.000,,,,,
3_S8,09/05/2023,10:22:08.300,0.000,-0.106,1.000,,,,,
3_S8,09/05/2023,10:22:08.400,0.000,-0.088,1.000,,,,,
3_S8,09/05/2023,10:22:08.500,0.000,-0.063,1.000,-630.0,2250.0,-2304.0,,
3_S8,09/05/2023,10:22:08.600,0.000,-0.063,1.000,,,,,
3_S8,09/05/2023,10:22:08.700,0.000,-0.044,1.000,,,,,
3_S8,09/05/2023,10:22:08.800,0.000,-0.013,0.988,,,,,
3_S8,09/05/2023,10:22:08.900,0.000,-0.063,0.938,,,,,
3_S8,09/05/2023,10:22:09.000,0.000,-0.063,1.000,-628.5,2278.5,-2292.0,,
3_S8,09/05/2023,10:22:09.100,0.000,-0.063,0.938,,,,,
3_S8,09/05/2023,10:22:09.200,0.000,-0.063,0.938,,,,,
3_S8,09/05/2023,10:22:09.300,0.000,0.000,0.938,,,,,
3_S8,09/05/2023,10:22:09.400,0.000,-0.063,1.000,,,,,
3_S8,09/05/2023,10:22:09.500,0.000,-0.063,1.000,-633.0,2256.0,-2304.0,,
3_S8,09/05/2023,10:22:09.600,0.000,-0.063,0.938,,,,,
3_S8,09/05/2023,10:22:09.700,0.000,-0.063,0.938,,,,,
3_S8,09/05/2023,10:22:09.800,0.000,-0.063,0.938,,,,,
3_S8,09/05/2023,10:22:09.900,0.000,-0.063,1.000,,,,,
3_S8,09/05/2023,10:22:10.000,0.000,-0.063,0.938,-621.0,2269.5,-2278.5,,
3_S8,09/05/2023,10:22:10.100,0.000,-0.063,0.938,,,,,
3_S8,09/05/2023,10:22:10.200,0.000,-0.125,0.938,,,,,
3_S8,09/05/2023,10:22:10.300,0.000,-0.125,1.000,,,,,
3_S8,09/05/2023,10:22:10.400,0.000,-0.063,0.938,,,,,
3_S8,09/05/2023,10:22:10.500,0.000,-0.063,1.000,-625.5,2250.0,-2305.5,,
3_S8,09/05/2023,10:22:10.600,0.000,-0.063,0.938,,,,,
3_S8,09/05/2023,10:22:10.700,0.000,-0.063,0.938,,,,,
3_S8,09/05/2023,10:22:10.800,0.000,-0.125,0.938,,,,,
3_S8,09/05/2023,10:22:10.900,0.000,-0.063,0.938,,,,,
3_S8,09/05/2023,10:22:11.000,0.000,-0.063,1.000,-640.5,2256.0,-2290.5,,
3_S8,09/05/2023,10:22:11.100,0.000,-0.125,0.938,,,,,
3_S8,09/05/2023,10:22:11.200,0.000,0.000,0.938,,,,,
3_S8,09/05/2023,10:22:11.300,0.000,-0.125,0.938,,,,,
3_S8,09/05/2023,10:22:11.400,0.000,-0.063,1.000,,,,,
3_S8,09/05/2023,10:22:11.500,0.000,-0.063,0.938,-624.0,2247.0,-2290.5,,
3_S8,09/05/2023,10:22:11.600,0.000,-0.063,0.938,,,,,
3_S8,09/05/2023,10:22:11.700,0.000,-0.125,0.938,,,,,
3_S8,09/05/2023,10:22:11.800,0.000,-0.063,0.938,,,,,
3_S8,09/05/2023,10:22:11.900,0.000,-0.063,1.000,,,,,
3_S8,09/05/2023,10:22:12.000,0.000,-0.063,0.938,-625.5,2260.5,-2293.5,22,
3_S8,09/05/2023,10:22:12.100,0.000,-0.063,0.994,,,,,
3_S8,09/05/2023,10:22:12.200,0.000,-0.063,1.000,,,,,
3_S8,09/05/2023,10:22:12.300,0.000,-0.106,1.000,,,,,
3_S8,09/05/2023,10:22:12.400,0.000,-0.125,1.000,,,,,
3_S8,09/05/2023,10:22:12.500,0.000,-0.125,0.969,-640.5,2238.0,-2293.5,,
3_S8,09/05/2023,10:22:12.600,0.000,-0.125,0.913,,,,,
3_S8,09/05/2023,10:22:12.700,0.000,-0.106,0.913,,,,,
3_S8,09/05/2023,10:22:12.800,-0.013,-0.063,0.988,,,,,
3_S8,09/05/2023,10:22:12.900,-0.063,-0.063,0.938,,,,,
3_S8,09/05/2023,10:22:13.000,0.000,-0.063,0.938,-627.0,2250.0,-2278.5,,
3_S8,09/05/2023,10:22:13.100,0.000,-0.063,1.000,,,,,
3_S8,09/05/2023,10:22:13.200,0.000,-0.063,0.938,,,,,
3_S8,09/05/2023,10:22:13.300,0.000,-0.063,0.938,,,,,
3_S8,09/05/2023,10:22:13.400,0.000,-0.125,0.938,,,,,
3_S8,09/05/2023,10:22:13.500,0.000,-0.125,1.000,-630.0,2247.0,-2293.5,,
3_S8,09/05/2023,10:22:13.600,0.000,0.000,0.938,,,,,
3_S8,09/05/2023,10:22:13.700,0.000,-0.125,0.938,,,,,
3_S8,09/05/2023,10:22:13.800,0.000,0.000,1.000,,,,,
3_S8,09/05/2023,10:22:13.900,0.000,-0.125,0.938,,,,,
3_S8,09/05/2023,10:22:14.000,0.000,-0.063,0.938,-628.5,2265.0,-2305.5,,
3_S8,09/05/2023,10:22:14.100,0.000,-0.063,1.000,,,,,
3_S8,09/05/2023,10:22:14.200,0.000,-0.063,1.000,,,,,
3_S8,09/05/2023,10:22:14.300,0.000,-0.063,0.938,,,,,
3_S8,09/05/2023,10:22:14.400,0.000,-0.063,1.000,,,,,
3_S8,09/05/2023,10:22:14.500,0.000,-0.063,0.938,-625.5,2263.5,-2295.0,,
3_S8,09/05/2023,10:22:14.600,0.000,-0.063,0.938,,,,,
3_S8,09/05/2023,10:22:14.700,0.000,-0.125,1.000,,,,,
3_S8,09/05/2023,10:22:14.800,0.000,-0.125,0.938,,,,,
3_S8,09/05/2023,10:22:14.900,0.000,-0.063,0.938,,,,,
3_S8,09/05/2023,10:22:15.000,0.000,-0.063,0.938,-625.5,2260.5,-2298.0,,
3_S8,09/05/2023,10:22:15.100,0.000,-0.063,0.938,,,,,
3_S8,09/05/2023,10:22:15.200,0.000,-0.063,1.000,,,,,
3_S8,09/05/2023,10:22:15.300,0.000,-0.063,1.000,,,,,
3_S8,09/05/2023,10:22:15.400,0.000,-0.063,0.938,,,,,
3_S8,09/05/2023,10:22:15.500,0.000,-0.063,1.000,-622.5,2251.5,-2305.5,,
3_S8,09/05/2023,10:22:15.600,0.000,-0.063,0.938,,,,,
3_S8,09/05/2023,10:22:15.700,0.000,-0.063,1.000,,,,,
3_S8,09/05/2023,10:22:15.800,0.000,0.000,0.938,,,,,
3_S8,09/05/2023,10:22:15.900,0.000,-0.125,0.938,,,,,
3_S8,09/05/2023,10:22:16.000,0.000,-0.063,0.938,-619.5,2254.5,-2307.0,,
3_S8,09/05/2023,10:22:16.100,0.000,-0.063,0.994,,,,,
3_S8,09/05/2023,10:22:16.200,0.000,-0.063,1.000,,,,,
3_S8,09/05/2023,10:22:16.300,0.000,-0.063,1.000,,,,,
3_S8,09/05/2023,10:22:16.400,0.000,-0.100,0.963,,,,,
3_S8,09/05/2023,10:22:16.500,0.000,-0.125,0.969,-636.0,2259.0,-2304.0,,
3_S8,09/05/2023,10:22:16.600,0.000,-0.100,1.000,,,,,
3_S8,09/05/2023,10:22:16.700,0.000,-0.081,1.000,,,,,
3_S8,09/05/2023,10:22:16.800,0.000,-0.113,1.000,,,,,
3_S8,09/05/2023,10:22:16.900,0.000,-0.063,1.000,,,,,
3_S8,09/05/2023,10:22:17.000,0.000,0.000,1.000,-625.5,2238.0,-2283.0,21,
3_S8,09/05/2023,10:22:17.100,0.000,-0.063,1.000,,,,,
3_S8,09/05/2023,10:22:17.200,-0.063,0.000,0.938,,,,,
3_S8,09/05/2023,10:22:17.300,0.000,-0.063,1.000,,,,,
3_S8,09/05/2023,10:22:17.400,0.000,-0.063,0.938,,,,,
3_S8,09/05/2023,10:22:17.500,0.000,-0.125,1.000,-618.0,2259.0,-2296.5,,
3_S8,09/05/2023,10:22:17.600,0.000,-0.125,1.000,,,,,
3_S8,09/05/2023,10:22:17.700,0.000,-0.063,0.938,,,,,
3_S8,09/05/2023,10:22:17.800,0.000,-0.063,0.938,,,,,
3_S8,09/05/2023,10:22:17.900,0.000,-0.063,0.938,,,,,
3_S8,09/05/2023,10:22:18.000,0.000,-0.063,0.938,-631.5,2269.5,-2286.0,,
3_S8,09/05/2023,10:22:18.100,0.000,-0.063,1.000,,,,,
3_S8,09/05/2023,10:22:18.200,0.000,-0.125,1.000,,,,,
3_S8,09/05/2023,10:22:18.300,0.000,-0.063,1.000,,,,,
3_S8,09/05/2023,10:22:18.400,0.000,-0.063,1.000,,,,,
3_S8,09/05/2023,10:22:18.500,0.000,-0.063,0.938,-627.0,2248.5,-2286.0,,
3_S8,09/05/2023,10:22:18.600,0.000,-0.063,0.938,,,,,
3_S8,09/05/2023,10:22:18.700,0.000,-0.063,1.000,,,,,
3_S8,09/05/2023,10:22:18.800,0.000,-0.125,0.938,,,,,
3_S8,09/05/2023,10:22:18.900,0.000,-0.063,0.938,,,,,
3_S8,09/05/2023,10:22:19.000,0.000,-0.063,0.938,-622.5,2245.5,-2289.0,,
3_S8,09/05/2023,10:22:19.100,0.000,-0.063,1.000,,,,,
3_S8,09/05/2023,10:22:19.200,0.000,-0.063,0.938,,,,,
3_S8,09/05/2023,10:22:19.300,-0.063,0.000,0.938,,,,,
3_S8,09/05/2023,10:22:19.400,0.000,-0.063,0.938,,,,,
3_S8,09/05/2023,10:22:19.500,0.000,-0.063,1.000,-634.5,2263.5,-2301.0,,
3_S8,09/05/2023,10:22:19.600,-0.063,0.000,1.000,,,,,
3_S8,09/05/2023,10:22:19.700,0.000,-0.063,1.000,,,,,
3_S8,09/05/2023,10:22:19.800,0.000,-0.125,0.938,,,,,
3_S8,09/05/2023,10:22:19.900,0.000,-0.063,0.938,,,,,
3_S8,09/05/2023,10:22:20.000,0.000,-0.063,1.000,-639.0,2251.5,-2283.0,,
3_S8,09/05/2023,10:22:20.100,0.000,-0.119,1.000,,,,,
3_S8,09/05/2023,10:22:20.200,0.000,-0.075,0.950,,,,,
3_S8,09/05/2023,10:22:20.300,0.000,-0.019,0.938,,,,,
3_S8,09/05/2023,10:22:20.400,0.000,-0.038,0.938,,,,,
3_S8,09/05/2023,10:22:20.500,0.000,-0.094,0.938,-610.5,2259.0,-2301.0,,
3_S8,09/05/2023,10:22:20.600,0.000,-0.100,0.963,,,,,
3_S8,09/05/2023,10:22:20.700,-0.019,-0.063,0.982,,,,,
3_S8,09/05/2023,10:22:20.800,-0.050,-0.063,0.950,,,,,
3_S8,09/05/2023,10:22:20.900,0.000,-0.063,1.000,,,,,
3_S8,09/05/2023,10:22:21.000,0.000,-0.063,0.938,-633.0,2250.0,-2280.0,,
3_S8,09/05/2023,10:22:21.100,0.000,-0.063,0.938,,,,,
3_S8,09/05/2023,10:22:21.200,0.000,-0.063,0.938,,,,,
3_S8,09/05/2023,10:22:21.300,0.000,-0.063,0.938,,,,,
3_S8,09/05/2023,10:22:21.400,0.000,-0.063,0.938,,,,,
3_S8,09/05/2023,10:22:21.500,0.000,-0.125,1.000,-637.5,2269.5,-2295.0,,
3_S8,09/05/2023,10:22:21.600,0.000,-0.063,0.938,,,,,
3_S8,09/05/2023,10:22:21.700,0.000,-0.063,1.000,,,,,
3_S8,09/05/2023,10:22:21.800,0.000,-0.063,1.000,,,,,
3_S8,09/05/2023,10:22:21.900,0.000,-0.063,1.000,,,,,
3_S8,09/05/2023,10:22:22.000,0.000,-0.063,0.938,-636.0,2260.5,-2292.0,22,
3_S8,09/05/2023,10:22:22.100,0.000,-0.063,0.938,,,,,
3_S8,09/05/2023,10:22:22.200,0.000,-0.063,0.938,,,,,
3_S8,09/05/2023,10:22:22.300,0.000,-0.125,0.938,,,,,
3_S8,09/05/2023,10:22:22.400,0.000,-0.125,1.000,,,,,
3_S8,09/05/2023,10:22:22.500,0.000,-0.063,0.938,-631.5,2250.0,-2277.0,,
3_S8,09/05/2023,10:22:22.600,0.000,0.000,1.000,,,,,
3_S8,09/05/2023,10:22:22.700,0.000,0.000,1.000,,,,,
3_S8,09/05/2023,10:22:22.800,0.000,-0.125,1.000,,,,,
3_S8,09/05/2023,10:22:22.900,0.000,-0.125,1.000,,,,,
3_S8,09/05/2023,10:22:23.000,0.000,-0.063,0.938,-637.5,2256.0,-2293.5,,
3_S8,09/05/2023,10:22:23.100,0.000,-0.125,1.000,,,,,
3_S8,09/05/2023,10:22:23.200,0.000,-0.063,1.000,,,,,
3_S8,09/05/2023,10:22:23.300,0.000,-0.063,1.000,,,,,
3_S8,09/05/2023,10:22:23.400,0.000,-0.125,1.000,,,,,
3_S8,09/05/2023,10:22:23.500,0.000,-0.063,1.000,-622.5,2236.5,-2283.0,,
3_S8,09/05/2023,10:22:23.600,0.000,-0.063,0.938,,,,,
3_S8,09/05/2023,10:22:23.700,0.000,-0.063,1.000,,,,,
3_S8,09/05/2023,10:22:23.800,0.000,-0.063,1.000,,,,,
3_S8,09/05/2023,10:22:23.900,0.000,-0.063,0.813,,,,,
3_S8,09/05/2023,10:22:24.000,0.000,-0.063,1.000,-622.5,2256.0,-2304.0,,
3_S8,09/05/2023,10:22:24.100,0.000,-0.063,0.944,,,,,
3_S8,09/05/2023,10:22:24.200,0.000,-0.063,0.938,,,,,
3_S8,09/05/2023,10:22:24.300,0.000,-0.063,0.938,,,,,
3_S8,09/05/2023,10:22:24.400,0.000,-0.063,0.938,,,,,
3_S8,09/05/2023,10:22:24.500,0.000,-0.094,0.969,-625.5,2253.0,-2299.5,,
3_S8,09/05/2023,10:22:24.600,0.000,-0.125,1.000,,,,,
3_S8,09/05/2023,10:22:24.700,0.000,-0.106,1.000,,,,,
3_S8,09/05/2023,10:22:24.800,0.000,-0.075,0.988,,,,,
3_S8,09/05/2023,10:22:24.900,0.000,-0.125,0.938,,,,,
3_S8,09/05/2023,10:22:25.000,0.000,-0.063,1.000,-639.0,2257.5,-2295.0,,
3_S8,09/05/2023,10:22:25.100,0.000,-0.063,1.000,,,,,
3_S8,09/05/2023,10:22:25.200,0.000,-0.063,0.938,,,,,
3_S8,09/05/2023,10:22:25.300,0.000,-0.063,0.938,,,,,
3_S8,09/05/2023,10:22:25.400,0.000,-0.063,0.938,,,,,
3_S8,09/05/2023,10:22:25.500,0.000,-0.063,0.938,-631.5,2262.0,-2292.0,,
3_S8,09/05/2023,10:22:25.600,0.000,-0.063,0.938,,,,,
3_S8,09/05/2023,10:22:25.700,0.000,-0.063,1.000,,,,,
3_S8,09/05/2023,10:22:25.800,0.000,-0.063,1.000,,,,,
3_S8,09/05/2023,10:22:25.900,0.000,-0.063,0.938,,,,,
3_S8,09/05/2023,10:22:26.000,0.000,-0.063,1.000,-637.5,2257.5,-2283.0,,
3_S8,09/05/2023,10:22:26.100,0.000,-0.063,1.000,,,,,
3_S8,09/05/2023,10:22:26.200,0.000,-0.063,0.938,,,,,
3_S8,09/05/2023,10:22:26.300,0.000,-0.063,0.938,,,,,
3_S8,09/05/2023,10:22:26.400,0.000,-0.063,0.938,,,,,
3_S8,09/05/2023,10:22:26.500,0.000,-0.063,1.000,-643.5,2254.5,-2295.0,,
3_S8,09/05/2023,10:22:26.600,0.000,-0.063,1.000,,,,,
3_S8,09/05/2023,10:22:26.700,0.000,-0.125,1.000,,,,,
3_S8,09/05/2023,10:22:26.800,0.000,-0.125,0.938,,,,,
3_S8,09/05/2023,10:22:26.900,0.000,-0.125,1.000,,,,,
3_S8,09/05/2023,10:22:27.000,0.000,-0.063,0.938,-628.5,2266.5,-2299.5,22,
3_S8,09/05/2023,10:22:27.100,0.000,-0.063,0.938,,,,,
3_S8,09/05/2023,10:22:27.200,0.000,-0.125,0.938,,,,,
3_S8,09/05/2023,10:22:27.300,0.000,-0.063,0.938,,,,,
3_S8,09/05/2023,10:22:27.400,0.000,0.000,1.000,,,,,
3_S8,09/05/2023,10:22:27.500,-0.063,0.000,1.000,-628.5,2251.5,-2293.5,,
3_S8,09/05/2023,10:22:27.600,0.000,-0.063,1.000,,,,,
3_S8,09/05/2023,10:22:27.700,0.000,0.000,1.000,,,,,
3_S8,09/05/2023,10:22:27.800,0.000,-0.063,1.000,,,,,
3_S8,09/05/2023,10:22:27.900,0.000,-0.063,0.938,,,,,
3_S8,09/05/2023,10:22:28.000,0.000,-0.125,0.938,-631.5,2257.5,-2290.5,,
3_S8,09/05/2023,10:22:28.100,0.000,-0.125,0.994,,,,,
3_S8,09/05/2023,10:22:28.200,0.000,-0.125,0.950,,,,,
3_S8,09/05/2023,10:22:28.300,0.000,-0.081,0.938,,,,,
3_S8,09/05/2023,10:22:28.400,0.000,-0.025,0.938,,,,,
3_S8,09/05/2023,10:22:28.500,0.000,-0.063,0.938,-649.5,2253.0,-2304.0,,
3_S8,09/05/2023,10:22:28.600,0.000,-0.100,0.963,,,,,
3_S8,09/05/2023,10:22:28.700,0.000,-0.063,0.982,,,,,
3_S8,09/05/2023,10:22:28.800,0.000,-0.075,0.938,,,,,
3_S8,09/05/2023,10:22:28.900,0.000,-0.125,0.938,,,,,
3_S8,09/05/2023,10:22:29.000,0.000,-0.125,1.000,-627.0,2254.5,-2308.5,,
3_S8,09/05/2023,10:22:29.100,0.000,-0.063,0.938,,,,,
3_S8,09/05/2023,10:22:29.200,0.000,-0.063,1.000,,,,,
3_S8,09/05/2023,10:22:29.300,0.000,-0.125,0.938,,,,,
3_S8,09/05/2023,10:22:29.400,0.000,-0.063,1.000,,,,,
3_S8,09/05/2023,10:22:29.500,0.000,-0.063,1.000,-634.5,2268.0,-2298.0,,
3_S8,09/05/2023,10:22:29.600,0.000,-0.063,0.938,,,,,
3_S8,09/05/2023,10:22:29.700,0.000,-0.063,1.000,,,,,
3_S8,09/05/2023,10:22:29.800,0.000,-0.063,1.000,,,,,
3_S8,09/05/2023,10:22:29.900,0.000,-0.063,1.000,,,,,
3_S8,09/05/2023,10:22:30.000,0.000,-0.063,1.000,-634.5,2272.5,-2292.0,,
3_S8,09/05/2023,10:22:30.100,0.000,-0.063,0.938,,,,,
3_S8,09/05/2023,10:22:30.200,0.000,-0.063,0.938,,,,,
3_S8,09/05/2023,10:22:30.300,0.000,-0.063,0.938,,,,,
3_S8,09/05/2023,10:22:30.400,0.000,-0.063,1.000,,,,,
3_S8,09/05/2023,10:22:30.500,0.000,-0.125,1.000,-622.5,2244.0,-2305.5,,
3_S8,09/05/2023,10:22:30.600,0.000,-0.063,1.063,,,,,
3_S8,09/05/2023,10:22:30.700,0.000,0.000,0.938,,,,,
3_S8,09/05/2023,10:22:30.800,0.000,0.000,0.938,,,,,
3_S8,09/05/2023,10:22:30.900,0.000,-0.125,1.000,,,,,
3_S8,09/05/2023,10:22:31.000,0.000,-0.063,1.000,-636.0,2263.5,-2298.0,,
3_S8,09/05/2023,10:22:31.100,0.000,-0.063,0.938,,,,,
3_S8,09/05/2023,10:22:31.200,0.000,-0.125,1.000,,,,,
3_S8,09/05/2023,10:22:31.300,0.000,-0.063,1.000,,,,,
3_S8,09/05/2023,10:22:31.400,0.000,-0.063,0.938,,,,,
3_S8,09/05/2023,10:22:31.500,0.000,0.000,1.000,-630.0,2254.5,-2308.5,,
3_S8,09/05/2023,10:22:31.600,0.000,-0.063,0.938,,,,,
3_S8,09/05/2023,10:22:31.700,0.000,0.000,1.000,,,,,
3_S8,09/05/2023,10:22:31.800,0.000,-0.125,1.000,,,,,
3_S8,09/05/2023,10:22:31.900,0.000,-0.063,1.000,,,,,
3_S8,09/05/2023,10:22:32.000,0.000,-0.125,1.000,-633.0,2257.5,-2308.5,21,
3_S8,09/05/2023,10:22:32.100,0.000,-0.069,0.944,,,,,
3_S8,09/05/2023,10:22:32.200,0.000,-0.063,0.988,,,,,
3_S8,09/05/2023,10:22:32.300,0.000,-0.063,1.000,,,,,
3_S8,09/05/2023,10:22:32.400,0.000,-0.063,0.963,,,,,
3_S8,09/05/2023,10:22:32.500,0.000,-0.063,0.969,-631.5,2269.5,-2292.0,,
3_S8,09/05/2023,10:22:32.600,-0.025,-0.088,0.975,,,,,
3_S8,09/05/2023,10:22:32.700,-0.044,-0.106,0.938,,,,,
3_S8,09/05/2023,10:22:32.800,0.000,-0.075,0.938,,,,,
3_S8,09/05/2023,10:22:32.900,0.000,-0.125,0.938,,,,,
3_S8,09/05/2023,10:22:33.000,0.000,-0.125,0.938,-637.5,2253.0,-2307.0,,
3_S8,09/05/2023,10:22:33.100,0.000,-0.125,1.000,,,,,
3_S8,09/05/2023,10:22:33.200,0.000,-0.125,0.938,,,,,
3_S8,09/05/2023,10:22:33.300,0.000,-0.063,0.938,,,,,
3_S8,09/05/2023,10:22:33.400,0.000,-0.063,0.938,,,,,
3_S8,09/05/2023,10:22:33.500,0.000,-0.125,1.000,-633.0,2271.0,-2286.0,,
3_S8,09/05/2023,10:22:33.600,0.000,-0.063,1.000,,,,,
3_S8,09/05/2023,10:22:33.700,0.000,-0.063,0.938,,,,,
3_S8,09/05/2023,10:22:33.800,0.000,-0.063,1.000,,,,,
3_S8,09/05/2023,10:22:33.900,0.000,-0.063,1.000,,,,,
3_S8,09/05/2023,10:22:34.000,0.000,-0.063,0.938,-615.0,2268.0,-2275.5,,
3_S8,09/05/2023,10:22:34.100,0.000,-0.063,0.938,,,,,
3_S8,09/05/2023,10:22:34.200,0.000,-0.063,0.938,,,,,
3_S8,09/05/2023,10:22:34.300,0.000,-0.063,0.938,,,,,
3_S8,09/05/2023,10:22:34.400,0.000,-0.063,0.938,,,,,
3_S8,09/05/2023,10:22:34.500,0.000,0.000,1.000,-639.0,2257.5,-2299.5,,
3_S8,09/05/2023,10:22:34.600,0.000,-0.063,1.000,,,,,
3_S8,09/05/2023,10:22:34.700,0.000,-0.063,0.938,,,,,
3_S8,09/05/2023,10:22:34.800,0.000,-0.063,1.000,,,,,
3_S8,09/05/2023,10:22:34.900,0.000,-0.063,1.000,,,,,
3_S8,09/05/2023,10:22:35.000,-0.063,-0.063,1.000,-621.0,2269.5,-2296.5,,
3_S8,09/05/2023,10:22:35.100,0.000,-0.063,1.000,,,,,
3_S8,09/05/2023,10:22:35.200,0.000,-0.125,0.938,,,,,
3_S8,09/05/2023,10:22:35.300,0.000,-0.063,0.938,,,,,
3_S8,09/05/2023,10:22:35.400,0.000,-0.063,0.938,,,,,
3_S8,09/05/2023,10:22:35.500,0.000,-0.063,0.938,-631.5,2257.5,-2298.0,,
3_S8,09/05/2023,10:22:35.600,0.000,-0.125,1.000,,,,,
3_S8,09/05/2023,10:22:35.700,0.000,-0.063,1.000,,,,,
3_S8,09/05/2023,10:22:35.800,0.000,-0.063,1.000,,,,,
3_S8,09/05/2023,10:22:35.900,0.000,-0.063,0.938,,,,,
3_S8,09/05/2023,10:22:36.000,0.000,-0.063,1.000,-639.0,2266.5,-2299.5,,
3_S8,09/05/2023,10:22:36.100,0.000,-0.119,0.944,,,,,
3_S8,09/05/2023,10:22:36.200,0.000,-0.075,0.938,,,,,
3_S8,09/05/2023,10:22:36.300,0.000,-0.106,0.938,,,,,
3_S8,09/05/2023,10:22:36.400,0.000,-0.088,0.938,,,,,
3_S8,09/05/2023,10:22:36.500,0.000,-0.063,0.969,-636.0,2257.5,-2283.0,,
3_S8,09/05/2023,10:22:36.600,0.000,-0.063,0.975,,,,,
3_S8,09/05/2023,10:22:36.700,0.000,-0.063,0.938,,,,,
3_S8,09/05/2023,10:22:36.800,0.000,-0.075,0.950,,,,,
3_S8,09/05/2023,10:22:36.900,0.000,-0.125,1.000,,,,,
3_S8,09/05/2023,10:22:37.000,0.000,-0.125,1.000,-618.0,2257.5,-2293.5,22,
3_S8,09/05/2023,10:22:37.100,0.000,-0.063,0.938,,,,,
3_S8,09/05/2023,10:22:37.200,0.000,-0.063,0.938,,,,,
3_S8,09/05/2023,10:22:37.300,0.000,0.000,1.000,,,,,
3_S8,09/05/2023,10:22:37.400,-0.063,-0.063,0.938,,,,,
3_S8,09/05/2023,10:22:37.500,0.000,-0.063,1.000,-633.0,2257.5,-2296.5,,
3_S8,09/05/2023,10:22:37.600,0.000,-0.063,1.000,,,,,
3_S8,09/05/2023,10:22:37.700,0.000,-0.063,1.000,,,,,
3_S8,09/05/2023,10:22:37.800,0.000,-0.125,1.000,,,,,
3_S8,09/05/2023,10:22:37.900,0.000,-0.125,0.938,,,,,
3_S8,09/05/2023,10:22:38.000,0.000,-0.125,1.000,-621.0,2245.5,-2287.5,,
3_S8,09/05/2023,10:22:38.100,0.000,-0.063,1.000,,,,,
3_S8,09/05/2023,10:22:38.200,0.000,-0.125,0.938,,,,,
3_S8,09/05/2023,10:22:38.300,-0.063,-0.063,1.000,,,,,
3_S8,09/05/2023,10:22:38.400,0.000,-0.063,0.938,,,,,
3_S8,09/05/2023,10:22:38.500,0.000,-0.125,0.938,-631.5,2262.0,-2305.5,,
3_S8,09/05/2023,10:22:38.600,0.000,-0.063,1.000,,,,,
3_S8,09/05/2023,10:22:38.700,0.000,0.000,0.938,,,,,
3_S8,09/05/2023,10:22:38.800,0.000,-0.063,1.000,,,,,
3_S8,09/05/2023,10:22:38.900,0.000,-0.063,1.000,,,,,
3_S8,09/05/2023,10:22:39.000,0.000,-0.063,1.000,-618.0,2259.0,-2301.0,,
3_S8,09/05/2023,10:22:39.100,0.000,-0.063,1.000,,,,,
3_S8,09/05/2023,10:22:39.200,0.000,-0.063,0.938,,,,,
3_S8,09/05/2023,10:22:39.300,0.000,-0.125,0.938,,,,,
3_S8,09/05/2023,10:22:39.400,0.000,-0.063,1.000,,,,,
3_S8,09/05/2023,10:22:39.500,0.000,-0.063,1.000,-612.0,2253.0,-2293.5,,
3_S8,09/05/2023,10:22:39.600,0.000,-0.063,1.000,,,,,
3_S8,09/05/2023,10:22:39.700,0.000,-0.125,0.938,,,,,
3_S8,09/05/2023,10:22:39.800,0.000,-0.063,0.938,,,,,
3_S8,09/05/2023,10:22:39.900,0.000,-0.063,0.938,,,,,
3_S8,09/05/2023,10:22:40.000,0.000,-0.063,0.938,-615.0,2256.0,-2302.5,,
3_S8,09/05/2023,10:22:40.100,0.000,-0.063,0.938,,,,,
3_S8,09/05/2023,10:22:40.200,-0.050,-0.063,0.938,,,,,
3_S8,09/05/2023,10:22:40.300,-0.019,-0.106,0.982,,,,,
3_S8,09/05/2023,10:22:40.400,0.000,-0.050,1.000,,,,,
3_S8,09/05/2023,10:22:40.500,0.000,-0.031,0.969,-631.5,2256.0,-2284.5,,
3_S8,09/05/2023,10:22:40.600,0.000,-0.088,0.963,,,,,
3_S8,09/05/2023,10:22:40.700,0.000,-0.106,1.000,,,,,
3_S8,09/05/2023,10:22:40.800,0.000,-0.063,1.000,,,,,
3_S8,09/05/2023,10:22:40.900,0.000,-0.063,1.000,,,,,
3_S8,09/05/2023,10:22:41.000,0.000,-0.063,0.938,-630.0,2250.0,-2298.0,,
3_S8,09/05/2023,10:22:41.100,0.000,-0.063,0.938,,,,,
3_S8,09/05/2023,10:22:41.200,0.000,-0.063,1.000,,,,,
3_S8,09/05/2023,10:22:41.300,0.000,0.000,1.000,,,,,
3_S8,09/05/2023,10:22:41.400,0.000,-0.063,1.000,,,,,
3_S8,09/05/2023,10:22:41.500,0.000,-0.063,0.938,-624.0,2272.5,-2295.0,,
3_S8,09/05/2023,10:22:41.600,0.000,-0.063,1.000,,,,,
3_S8,09/05/2023,10:22:41.700,0.000,-0.063,0.938,,,,,
3_S8,09/05/2023,10:22:41.800,0.000,-0.063,0.938,,,,,
3_S8,09/05/2023,10:22:41.900,0.000,0.000,1.000,,,,,
3_S8,09/05/2023,10:22:42.000,0.000,-0.063,1.000,-646.5,2266.5,-2287.5,22,
3_S8,09/05/2023,10:22:42.100,0.000,-0.063,1.000,,,,,
3_S8,09/05/2023,10:22:42.200,0.000,-0.063,1.000,,,,,
3_S8,09/05/2023,10:22:42.300,0.000,-0.063,0.938,,,,,
3_S8,09/05/2023,10:22:42.400,0.000,-0.063,0.938,,,,,
3_S8,09/05/2023,10:22:42.500,-0.063,-0.063,0.938,-634.5,2259.0,-2295.0,,
3_S8,09/05/2023,10:22:42.600,0.000,-0.063,0.938,,,,,
3_S8,09/05/2023,10:22:42.700,0.000,-0.063,1.000,,,,,
3_S8,09/05/2023,10:22:42.800,-0.063,-0.125,1.000,,,,,
3_S8,09/05/2023,10:22:42.900,0.000,-0.063,0.938,,,,,
3_S8,09/05/2023,10:22:43.000,0.000,-0.125,1.000,-621.0,2250.0,-2299.5,,
3_S8,09/05/2023,10:22:43.100,0.000,-0.063,1.000,,,,,
3_S8,09/05/2023,10:22:43.200,0.000,-0.063,0.938,,,,,
3_S8,09/05/2023,10:22:43.300,0.000,-0.063,1.000,,,,,
3_S8,09/05/2023,10:22:43.400,0.000,-0.063,0.938,,,,,
3_S8,09/05/2023,10:22:43.500,0.000,-0.063,0.938,-642.0,2257.5,-2293.5,,
3_S8,09/05/2023,10:22:43.600,0.000,-0.063,1.000,,,,,
3_S8,09/05/2023,10:22:43.700,0.000,-0.125,1.000,,,,,
3_S8,09/05/2023,10:22:43.800,0.000,-0.125,1.000,,,,,
3_S8,09/05/2023,10:22:43.900,-0.063,-0.063,0.938,,,,,
3_S8,09/05/2023,10:22:44.000,0.000,-0.125,1.000,-651.0,2262.0,-2290.5,,
3_S8,09/05/2023,10:22:44.100,0.000,-0.069,1.000,,,,,
3_S8,09/05/2023,10:22:44.200,-0.050,-0.063,1.000,,,,,
3_S8,09/05/2023,10:22:44.300,-0.019,-0.063,1.000,,,,,
3_S8,09/05/2023,10:22:44.400,0.000,-0.063,0.963,,,,,
3_S8,09/05/2023,10:22:44.500,0.000,-0.063,0.969,-637.5,2259.0,-2299.5,,
3_S8,09/05/2023,10:22:44.600,0.000,-0.063,1.000,,,,,
3_S8,09/05/2023,10:22:44.700,0.000,-0.081,1.000,,,,,
3_S8,09/05/2023,10:22:44.800,0.000,-0.125,0.988,,,,,
3_S8,09/05/2023,10:22:44.900,0.000,-0.125,0.938,,,,,
3_S8,09/05/2023,10:22:45.000,0.000,-0.063,0.938,-646.5,2266.5,-2287.5,,
3_S8,09/05/2023,10:22:45.100,0.000,-0.063,1.000,,,,,
3_S8,09/05/2023,10:22:45.200,0.000,-0.125,0.938,,,,,
3_S8,09/05/2023,10:22:45.300,0.000,-0.063,1.000,,,,,
3_S8,09/05/2023,10:22:45.400,0.000,-0.063,1.000,,,,,
3_S8,09/05/2023,10:22:45.500,0.000,-0.063,0.938,-639.0,2253.0,-2292.0,,
3_S8,09/05/2023,10:22:45.600,0.000,-0.063,0.938,,,,,
3_S8,09/05/2023,10:22:45.700,0.000,-0.063,0.938,,,,,
3_S8,09/05/2023,10:22:45.800,0.000,0.000,1.000,,,,,
3_S8,09/05/2023,10:22:45.900,0.000,-0.063,1.000,,,,,
3_S8,09/05/2023,10:22:46.000,0.000,-0.063,1.000,-619.5,2254.5,-2284.5,,
3_S8,09/05/2023,10:22:46.100,-0.063,-0.125,1.000,,,,,
3_S8,09/05/2023,10:22:46.200,0.000,-0.063,0.938,,,,,
3_S8,09/05/2023,10:22:46.300,0.000,-0.063,1.000,,,,,
3_S8,09/05/2023,10:22:46.400,0.000,-0.063,0.938,,,,,
3_S8,09/05/2023,10:22:46.500,0.000,-0.063,1.000,-618.0,2259.0,-2296.5,,
3_S8,09/05/2023,10:22:46.600,0.000,-0.125,1.000,,,,,
3_S8,09/05/2023,10:22:46.700,0.000,-0.125,0.938,,,,,
3_S8,09/05/2023,10:22:46.800,0.000,-0.125,0.938,,,,,
3_S8,09/05/2023,10:22:46.900,-0.063,-0.063,0.938,,,,,
3_S8,09/05/2023,10:22:47.000,0.000,-0.063,1.000,-619.5,2257.5,-2284.5,22,
3_S8,09/05/2023,10:22:47.100,0.000,-0.063,1.000,,,,,
3_S8,09/05/2023,10:22:47.200,0.000,-0.063,1.000,,,,,
3_S8,09/05/2023,10:22:47.300,0.000,-0.063,0.938,,,,,
3_S8,09/05/2023,10:22:47.400,0.000,-0.063,0.938,,,,,
3_S8,09/05/2023,10:22:47.500,0.000,0.000,0.938,-621.0,2262.0,-2292.0,,
3_S8,09/05/2023,10:22:47.600,0.000,-0.063,1.000,,,,,
3_S8,09/05/2023,10:22:47.700,0.000,-0.125,0.938,,,,,
3_S8,09/05/2023,10:22:47.800,0.000,-0.125,0.938,,,,,
3_S8,09/05/2023,10:22:47.900,0.000,-0.063,1.000,,,,,
3_S8,09/05/2023,10:22:48.000,0.000,-0.063,1.000,-634.5,2254.5,-2299.5,,
3_S8,09/05/2023,10:22:48.100,0.000,-0.063,1.000,,,,,
3_S8,09/05/2023,10:22:48.200,0.000,-0.013,1.000,,,,,
3_S8,09/05/2023,10:22:48.300,0.000,-0.044,1.000,,,,,
3_S8,09/05/2023,10:22:48.400,0.000,-0.100,1.000,,,,,
3_S8,09/05/2023,10:22:48.500,0.000,-0.094,0.969,-631.5,2265.0,-2287.5,,
3_S8,09/05/2023,10:22:48.600,0.000,-0.063,0.938,,,,,
3_S8,09/05/2023,10:22:48.700,0.000,-0.081,0.938,,,,,
3_S8,09/05/2023,10:22:48.800,0.000,-0.113,0.950,,,,,
3_S8,09/05/2023,10:22:48.900,0.000,-0.063,1.000,,,,,
3_S8,09/05/2023,10:22:49.000,-0.063,-0.063,0.938,-633.0,2266.5,-2295.0,,
3_S8,09/05/2023,10:22:49.100,0.000,-0.063,0.938,,,,,
3_S8,09/05/2023,10:22:49.200,0.000,-0.063,1.000,,,,,
3_S8,09/05/2023,10:22:49.300,0.000,0.000,0.938,,,,,
3_S8,09/05/2023,10:22:49.400,0.000,-0.063,0.938,,,,,
3_S8,09/05/2023,10:22:49.500,0.000,-0.063,1.000,-640.5,2257.5,-2293.5,,
3_S8,09/05/2023,10:22:49.600,0.000,-0.063,1.000,,,,,
3_S8,09/05/2023,10:22:49.700,0.000,-0.125,0.938,,,,,
3_S8,09/05/2023,10:22:49.800,0.000,-0.125,0.938,,,,,
3_S8,09/05/2023,10:22:49.900,0.000,-0.063,1.000,,,,,
3_S8,09/05/2023,10:22:50.000,0.000,-0.063,1.000,-627.0,2272.5,-2287.5,,
3_S8,09/05/2023,10:22:50.100,0.000,-0.125,1.000,,,,,
3_S8,09/05/2023,10:22:50.200,0.000,-0.063,1.000,,,,,
3_S8,09/05/2023,10:22:50.300,0.000,-0.125,0.938,,,,,
3_S8,09/05/2023,10:22:50.400,0.000,-0.063,1.000,,,,,
3_S8,09/05/2023,10:22:50.500,0.000,-0.063,1.000,-639.0,2257.5,-2298.0,,
3_S8,09/05/2023,10:22:50.600,-0.063,-0.125,0.938,,,,,
3_S8,09/05/2023,10:22:50.700,0.000,-0.063,1.000,,,,,
3_S8,09/05/2023,10:22:50.800,0.000,-0.125,1.000,,,,,
3_S8,09/05/2023,10:22:50.900,0.000,-0.125,1.000,,,,,
3_S8,09/05/2023,10:22:51.000,0.000,0.000,0.938,-628.5,2263.5,-2293.5,,
3_S8,09/05/2023,10:22:51.100,0.000,-0.063,1.000,,,,,
3_S8,09/05/2023,10:22:51.200,0.000,-0.063,1.000,,,,,
3_S8,09/05/2023,10:22:51.300,0.000,-0.063,0.938,,,,,
3_S8,09/05/2023,10:22:51.400,-0.063,-0.063,0.938,,,,,
3_S8,09/05/2023,10:22:51.500,0.000,-0.063,1.000,-612.0,2266.5,-2298.0,,
3_S8,09/05/2023,10:22:51.600,0.000,-0.125,0.938,,,,,
3_S8,09/05/2023,10:22:51.700,0.000,-0.063,1.000,,,,,
3_S8,09/05/2023,10:22:51.800,0.000,-0.063,1.000,,,,,
3_S8,09/05/2023,10:22:51.900,0.000,-0.063,0.938,,,,,
3_S8,09/05/2023,10:22:52.000,0.063,-0.063,0.938,-637.5,2256.0,-2293.5,22,
3_S8,09/05/2023,10:22:52.100,0.006,-0.063,0.994,,,,,
3_S8,09/05/2023,10:22:52.200,-0.050,-0.063,0.950,,,,,
3_S8,09/05/2023,10:22:52.300,-0.019,-0.106,0.982,,,,,
3_S8,09/05/2023,10:22:52.400,0.000,-0.088,1.000,,,,,
3_S8,09/05/2023,10:22:52.500,0.000,-0.063,1.000,-645.0,2262.0,-2271.0,,
3_S8,09/05/2023,10:22:52.600,0.000,-0.063,0.975,,,,,
3_S8,09/05/2023,10:22:52.700,0.000,-0.063,0.957,,,,,
3_S8,09/05/2023,10:22:52.800,0.000,-0.063,0.988,,,,,
3_S8,09/05/2023,10:22:52.900,0.000,-0.063,0.938,,,,,
3_S8,09/05/2023,10:22:53.000,0.000,-0.063,1.000,-627.0,2251.5,-2298.0,,
3_S8,09/05/2023,10:22:53.100,0.000,-0.063,1.000,,,,,
3_S8,09/05/2023,10:22:53.200,0.000,-0.063,1.000,,,,,
3_S8,09/05/2023,10:22:53.300,0.000,-0.063,0.938,,,,,
3_S8,09/05/2023,10:22:53.400,0.000,-0.125,0.938,,,,,
3_S8,09/05/2023,10:22:53.500,0.000,-0.063,1.000,-624.0,2268.0,-2301.0,,
3_S8,09/05/2023,10:22:53.600,0.000,-0.063,1.000,,,,,
3_S8,09/05/2023,10:22:53.700,0.000,-0.125,1.000,,,,,
3_S8,09/05/2023,10:22:53.800,0.000,-0.063,0.938,,,,,
3_S8,09/05/2023,10:22:53.900,0.000,-0.063,1.000,,,,,
3_S8,09/05/2023,10:22:54.000,0.000,-0.063,0.938,-645.0,2257.5,-2304.0,,
3_S8,09/05/2023,10:22:54.100,0.000,-0.063,0.938,,,,,
3_S8,09/05/2023,10:22:54.200,0.000,-0.063,0.938,,,,,
3_S8,09/05/2023,10:22:54.300,0.000,-0.063,1.000,,,,,
3_S8,09/05/2023,10:22:54.400,0.000,-0.125,0.938,,,,,
3_S8,09/05/2023,10:22:54.500,0.000,-0.063,0.938,-624.0,2247.0,-2304.0,,
3_S8,09/05/2023,10:22:54.600,0.000,-0.063,0.938,,,,,
3_S8,09/05/2023,10:22:54.700,0.000,-0.125,1.000,,,,,
3_S8,09/05/2023,10:22:54.800,0.000,-0.125,0.938,,,,,
3_S8,09/05/2023,10:22:54.900,0.000,0.000,0.938,,,,,
3_S8,09/05/2023,10:22:55.000,0.000,-0.063,1.000,-625.5,2271.0,-2271.0,,
3_S8,09/05/2023,10:22:55.100,0.000,-0.125,0.938,,,,,
3_S8,09/05/2023,10:22:55.200,0.000,-0.125,1.000,,,,,
3_S8,09/05/2023,10:22:55.300,0.000,-0.063,0.938,,,,,
3_S8,09/05/2023,10:22:55.400,0.000,-0.063,1.000,,,,,
3_S8,09/05/2023,10:22:55.500,0.000,-0.063,0.938,-643.5,2274.0,-2293.5,,
3_S8,09/05/2023,10:22:55.600,0.000,-0.063,1.000,,,,,
3_S8,09/05/2023,10:22:55.700,0.000,-0.063,0.938,,,,,
3_S8,09/05/2023,10:22:55.800,0.000,-0.063,0.938,,,,,
3_S8,09/05/2023,10:22:55.900,0.000,-0.063,1.000,,,,,
3_S8,09/05/2023,10:22:56.000,0.000,-0.063,0.938,-622.5,2238.0,-2305.5,,
3_S8,09/05/2023,10:22:56.100,0.000,-0.063,0.938,,,,,
3_S8,09/05/2023,10:22:56.200,0.000,-0.063,0.988,,,,,
3_S8,09/05/2023,10:22:56.300,0.000,-0.063,1.000,,,,,
3_S8,09/05/2023,10:22:56.400,-0.038,-0.063,0.963,,,,,
3_S8,09/05/2023,10:22:56.500,-0.031,-0.063,0.938,-619.5,2247.0,-2305.5,,
3_S8,09/05/2023,10:22:56.600,0.000,-0.063,0.963,,,,,
3_S8,09/05/2023,10:22:56.700,0.000,-0.063,1.000,,,,,
3_S8,09/05/2023,10:22:56.800,0.000,-0.063,1.000,,,,,
3_S8,09/05/2023,10:22:56.900,0.000,-0.063,1.000,,,,,
3_S8,09/05/2023,10:22:57.000,0.000,-0.063,0.938,-615.0,2254.5,-2278.5,21,
3_S8,09/05/2023,10:22:57.100,0.000,-0.063,1.000,,,,,
3_S8,09/05/2023,10:22:57.200,0.000,-0.063,1.000,,,,,
3_S8,09/05/2023,10:22:57.300,0.000,-0.125,1.000,,,,,
3_S8,09/05/2023,10:22:57.400,0.000,-0.125,0.938,,,,,
3_S8,09/05/2023,10:22:57.500,0.000,-0.063,0.938,-630.0,2247.0,-2287.5,,
3_S8,09/05/2023,10:22:57.600,0.000,-0.125,1.000,,,,,
3_S8,09/05/2023,10:22:57.700,0.000,-0.063,0.938,,,,,
3_S8,09/05/2023,10:22:57.800,0.000,-0.063,1.000,,,,,
3_S8,09/05/2023,10:22:57.900,0.000,-0.063,0.938,,,,,
3_S8,09/05/2023,10:22:58.000,0.000,-0.063,0.938,-642.0,2259.0,-2280.0,,
3_S8,09/05/2023,10:22:58.100,0.000,-0.063,1.000,,,,,
3_S8,09/05/2023,10:22:58.200,0.000,-0.125,1.000,,,,,
3_S8,09/05/2023,10:22:58.300,0.000,-0.125,1.000,,,,,
3_S8,09/05/2023,10:22:58.400,0.000,-0.125,0.938,,,,,
3_S8,09/05/2023,10:22:58.500,0.000,-0.125,1.000,-631.5,2253.0,-2301.0,,
3_S8,09/05/2023,10:22:58.600,0.000,-0.063,0.938,,,,,
3_S8,09/05/2023,10:22:58.700,0.000,-0.125,1.000,,,,,
3_S8,09/05/2023,10:22:58.800,0.000,-0.125,0.938,,,,,
3_S8,09/05/2023,10:22:58.900,0.000,-0.125,0.938,,,,,
3_S8,09/05/2023,10:22:59.000,0.000,-0.063,1.000,-633.0,2256.0,-2316.0,,
3_S8,09/05/2023,10:22:59.100,-0.063,-0.125,0.938,,,,,
3_S8,09/05/2023,10:22:59.200,0.000,-0.063,1.000,,,,,
3_S8,09/05/2023,10:22:59.300,0.000,-0.063,1.000,,,,,
3_S8,09/05/2023,10:22:59.400,0.000,0.000,0.938,,,,,
3_S8,09/05/2023,10:22:59.500,0.000,-0.063,1.000,-634.5,2253.0,-2302.5,,
3_S8,09/05/2023,10:22:59.600,0.000,-0.063,1.000,,,,,
3_S8,09/05/2023,10:22:59.700,-0.063,-0.125,1.000,,,,,
3_S8,09/05/2023,10:22:59.800,-0.063,-0.125,1.000,,,,,
3_S8,09/05/2023,10:22:59.900,-0.063,-0.063,1.000,,,,,
3_S8,09/05/2023,10:23:00.000,0.000,-0.063,1.000,-631.5,2254.5,-2284.5,,
3_S8,09/05/2023,10:23:00.100,0.000,-0.063,0.944,,,,,
3_S8,09/05/2023,10:23:00.200,0.000,-0.063,0.938,,,,,
3_S8,09/05/2023,10:23:00.300,0.000,-0.019,0.938,,,,,
3_S8,09/05/2023,10:23:00.400,0.000,-0.075,0.975,,,,,
3_S8,09/05/2023,10:23:00.500,0.000,-0.094,1.000,-630.0,2242.5,-2289.0,,
3_S8,09/05/2023,10:23:00.600,0.000,-0.063,1.000,,,,,
3_S8,09/05/2023,10:23:00.700,0.000,-0.063,0.982,,,,,
3_S8,09/05/2023,10:23:00.800,0.000,-0.063,0.938,,,,,
3_S8,09/05/2023,10:23:00.900,0.000,-0.063,0.938,,,,,
3_S8,09/05/2023,10:23:01.000,0.000,0.000,1.000,-636.0,2253.0,-2289.0,,
3_S8,09/05/2023,10:23:01.100,0.000,-0.125,0.938,,,,,
3_S8,09/05/2023,10:23:01.200,0.000,-0.125,1.000,,,,,
3_S8,09/05/2023,10:23:01.300,0.000,-0.063,1.000,,,,,
3_S8,09/05/2023,10:23:01.400,0.000,-0.063,1.000,,,,,
3_S8,09/05/2023,10:23:01.500,0.000,-0.063,0.938,-633.0,2256.0,-2278.5,,
3_S8,09/05/2023,10:23:01.600,0.000,-0.063,0.938,,,,,
3_S8,09/05/2023,10:23:01.700,0.000,0.000,1.000,,,,,
3_S8,09/05/2023,10:23:01.800,0.000,-0.063,1.000,,,,,
3_S8,09/05/2023,10:23:01.900,0.000,-0.063,1.000,,,,,
3_S8,09/05/2023,10:23:02.000,0.000,0.000,0.938,-625.5,2278.5,-2311.5,22,
3_S8,09/05/2023,10:23:02.100,0.000,-0.063,0.938,,,,,
3_S8,09/05/2023,10:23:02.200,0.000,-0.125,0.938,,,,,
3_S8,09/05/2023,10:23:02.300,0.000,-0.063,1.000,,,,,
3_S8,09/05/2023,10:23:02.400,0.000,-0.063,0.938,,,,,
3_S8,09/05/2023,10:23:02.500,0.000,-0.125,1.000,-649.5,2259.0,-2302.5,,
3_S8,09/05/2023,10:23:02.600,0.000,-0.063,1.000,,,,,
3_S8,09/05/2023,10:23:02.700,0.000,-0.063,1.000,,,,,
3_S8,09/05/2023,10:23:02.800,0.000,-0.125,0.938,,,,,
3_S8,09/05/2023,10:23:02.900,0.000,-0.063,0.938,,,,,
3_S8,09/05/2023,10:23:03.000,0.000,-0.125,0.938,-642.0,2260.5,-2305.5,,
3_S8,09/05/2023,10:23:03.100,0.000,-0.063,0.938,,,,,
3_S8,09/05/2023,10:23:03.200,0.000,-0.125,0.938,,,,,
3_S8,09/05/2023,10:23:03.300,0.000,0.000,1.000,,,,,
3_S8,09/05/2023,10:23:03.400,0.000,-0.063,0.938,,,,,
3_S8,09/05/2023,10:23:03.500,0.000,-0.063,1.000,-619.5,2266.5,-2283.0,,
3_S8,09/05/2023,10:23:03.600,0.000,-0.125,0.938,,,,,
3_S8,09/05/2023,10:23:03.700,0.000,-0.063,0.938,,,,,
3_S8,09/05/2023,10:23:03.800,0.000,-0.063,0.938,,,,,
3_S8,09/05/2023,10:23:03.900,0.000,-0.125,0.938,,,,,
3_S8,09/05/2023,10:23:04.000,0.000,-0.063,0.938,-625.5,2265.0,-2307.0,,
3_S8,09/05/2023,10:23:04.100,0.000,-0.063,0.938,,,,,
3_S8,09/05/2023,10:23:04.200,0.000,-0.063,0.988,,,,,
3_S8,09/05/2023,10:23:04.300,0.000,-0.063,0.957,,,,,
3_S8,09/05/2023,10:23:04.400,0.000,-0.063,0.975,,,,,
3_S8,09/05/2023,10:23:04.500,0.000,-0.094,1.000,-628.5,2265.0,-2310.0,,
3_S8,09/05/2023,10:23:04.600,0.000,-0.100,0.975,,,,,
3_S8,09/05/2023,10:23:04.700,0.000,-0.081,0.938,,,,,
3_S8,09/05/2023,10:23:04.800,0.000,-0.113,0.950,,,,,
3_S8,09/05/2023,10:23:04.900,0.000,-0.063,1.000,,,,,
3_S8,09/05/2023,10:23:05.000,0.000,-0.063,1.000,-631.5,2263.5,-2298.0,,
3_S8,09/05/2023,10:23:05.100,0.000,-0.063,0.938,,,,,
3_S8,09/05/2023,10:23:05.200,0.000,-0.063,1.000,,,,,
3_S8,09/05/2023,10:23:05.300,0.000,-0.063,0.938,,,,,
3_S8,09/05/2023,10:23:05.400,-0.063,-0.125,0.938,,,,,
3_S8,09/05/2023,10:23:05.500,0.000,-0.063,0.938,-633.0,2262.0,-2293.5,,
3_S8,09/05/2023,10:23:05.600,0.000,-0.063,1.000,,,,,
3_S8,09/05/2023,10:23:05.700,0.000,0.000,1.000,,,,,
3_S8,09/05/2023,10:23:05.800,0.000,-0.063,0.938,,,,,
3_S8,09/05/2023,10:23:05.900,0.000,-0.063,1.000,,,,,
3_S8,09/05/2023,10:23:06.000,0.000,-0.063,0.938,-633.0,2251.5,-2298.0,,
3_S8,09/05/2023,10:23:06.100,0.000,-0.063,0.938,,,,,
3_S8,09/05/2023,10:23:06.200,0.000,-0.063,1.000,,,,,
3_S8,09/05/2023,10:23:06.300,0.000,-0.063,1.000,,,,,
3_S8,09/05/2023,10:23:06.400,0.000,-0.063,0.938,,,,,
3_S8,09/05/2023,10:23:06.500,0.000,-0.125,1.000,-636.0,2253.0,-2274.0,,
3_S8,09/05/2023,10:23:06.600,0.000,-0.063,0.938,,,,,
3_S8,09/05/2023,10:23:06.700,0.000,-0.063,1.000,,,,,
3_S8,09/05/2023,10:23:06.800,0.000,0.000,0.938,,,,,
3_S8,09/05/2023,10:23:06.900,0.000,-0.063,0.938,,,,,
3_S8,09/05/2023,10:23:07.000,0.000,-0.063,1.000,-627.0,2253.0,-2295.0,22,
3_S8,09/05/2023,10:23:07.100,0.000,-0.063,0.938,,,,,
3_S8,09/05/2023,10:23:07.200,0.000,0.000,1.000,,,,,
3_S8,09/05/2023,10:23:07.300,0.000,-0.063,0.938,,,,,
3_S8,09/05/2023,10:23:07.400,0.000,-0.063,1.000,,,,,
3_S8,09/05/2023,10:23:07.500,0.000,-0.063,0.938,-616.5,2262.0,-2304.0,,
3_S8,09/05/2023,10:23:07.600,0.000,-0.125,0.938,,,,,
3_S8,09/05/2023,10:23:07.700,0.000,-0.063,0.938,,,,,
3_S8,09/05/2023,10:23:07.800,0.000,-0.063,0.938,,,,,
3_S8,09/05/2023,10:23:07.900,0.000,-0.125,0.938,,,,,
3_S8,09/05/2023,10:23:08.000,-0.063,-0.063,1.000,-624.0,2275.5,-2281.5,,
3_S8,09/05/2023,10:23:08.100,-0.006,-0.006,0.944,,,,,
3_S8,09/05/2023,10:23:08.200,0.000,-0.050,0.988,,,,,
3_S8,09/05/2023,10:23:08.300,-0.044,-0.063,1.000,,,,,
3_S8,09/05/2023,10:23:08.400,-0.063,-0.063,0.963,,,,,
3_S8,09/05/2023,10:23:08.500,-0.031,-0.063,0.969,-636.0,2277.0,-2296.5,,
3_S8,09/05/2023,10:23:08.600,0.000,-0.063,1.000,,,,,
3_S8,09/05/2023,10:23:08.700,0.000,-0.063,1.000,,,,,
3_S8,09/05/2023,10:23:08.800,0.000,-0.063,0.988,,,,,
3_S8,09/05/2023,10:23:08.900,0.000,-0.063,0.938,,,,,
3_S8,09/05/2023,10:23:09.000,0.000,-0.125,0.938,-630.0,2259.0,-2295.0,,
3_S8,09/05/2023,10:23:09.100,0.000,-0.063,0.938,,,,,
3_S8,09/05/2023,10:23:09.200,0.000,-0.063,1.000,,,,,
3_S8,09/05/2023,10:23:09.300,0.000,0.000,0.938,,,,,
3_S8,09/05/2023,10:23:09.400,0.000,-0.063,1.000,,,,,
3_S8,09/05/2023,10:23:09.500,0.000,-0.063,0.938,-628.5,2257.5,-2286.0,,
3_S8,09/05/2023,10:23:09.600,0.000,-0.063,0.938,,,,,
3_S8,09/05/2023,10:23:09.700,0.000,-0.063,0.938,,,,,
3_S8,09/05/2023,10:23:09.800,0.000,-0.063,1.000,,,,,
3_S8,09/05/2023,10:23:09.900,0.000,-0.063,0.938,,,,,
3_S8,09/05/2023,10:23:10.000,0.000,-0.125,0.938,-622.5,2263.5,-2292.0,,
3_S8,09/05/2023,10:23:10.100,0.000,-0.063,1.000,,,,,
3_S8,09/05/2023,10:23:10.200,0.000,-0.063,0.938,,,,,
3_S8,09/05/2023,10:23:10.300,0.000,-0.125,1.000,,,,,
3_S8,09/05/2023,10:23:10.400,-0.063,-0.125,0.938,,,,,
3_S8,09/05/2023,10:23:10.500,0.000,-0.063,0.938,-637.5,2245.5,-2305.5,,
3_S8,09/05/2023,10:23:10.600,0.000,-0.063,1.000,,,,,
3_S8,09/05/2023,10:23:10.700,0.000,-0.063,0.938,,,,,
3_S8,09/05/2023,10:23:10.800,-0.063,-0.125,1.000,,,,,
3_S8,09/05/2023,10:23:10.900,0.000,-0.063,1.000,,,,,
3_S8,09/05/2023,10:23:11.000,0.000,-0.063,1.000,-633.0,2259.0,-2295.0,,
3_S8,09/05/2023,10:23:11.100,0.000,-0.063,1.000,,,,,
3_S8,09/05/2023,10:23:11.200,0.000,-0.063,0.938,,,,,
3_S8,09/05/2023,10:23:11.300,0.000,-0.063,0.938,,,,,
3_S8,09/05/2023,10:23:11.400,0.000,-0.125,0.938,,,,,
3_S8,09/05/2023,10:23:11.500,-0.063,-0.063,1.000,-631.5,2260.5,-2287.5,,
3_S8,09/05/2023,10:23:11.600,0.000,-0.063,0.938,,,,,
3_S8,09/05/2023,10:23:11.700,0.000,-0.125,1.000,,,,,
3_S8,09/05/2023,10:23:11.800,0.000,-0.063,1.000,,,,,
3_S8,09/05/2023,10:23:11.900,0.000,-0.063,0.938,,,,,
3_S8,09/05/2023,10:23:12.000,0.000,-0.125,0.938,-628.5,2259.0,-2302.5,21,
3_S8,09/05/2023,10:23:12.100,0.000,-0.069,0.938,,,,,
3_S8,09/05/2023,10:23:12.200,0.000,-0.063,0.988,,,,,
3_S8,09/05/2023,10:23:12.300,0.000,-0.106,0.957,,,,,
3_S8,09/05/2023,10:23:12.400,0.000,-0.125,0.938,,,,,
3_S8,09/05/2023,10:23:12.500,0.000,-0.094,0.969,-625.5,2263.5,-2283.0,,
3_S8,09/05/2023,10:23:12.600,0.000,-0.088,0.975,,,,,
3_S8,09/05/2023,10:23:12.700,0.000,-0.125,0.957,,,,,
3_S8,09/05/2023,10:23:12.800,0.000,-0.113,1.000,,,,,
3_S8,09/05/2023,10:23:12.900,0.000,-0.063,1.000,,,,,
3_S8,09/05/2023,10:23:13.000,-0.063,0.000,0.938,-637.5,2265.0,-2302.5,,
3_S8,09/05/2023,10:23:13.100,0.000,-0.125,1.000,,,,,
3_S8,09/05/2023,10:23:13.200,0.000,-0.063,1.000,,,,,
3_S8,09/05/2023,10:23:13.300,0.000,-0.125,0.938,,,,,
3_S8,09/05/2023,10:23:13.400,0.000,-0.063,1.000,,,,,
3_S8,09/05/2023,10:23:13.500,0.000,0.000,0.938,-630.0,2265.0,-2295.0,,
3_S8,09/05/2023,10:23:13.600,0.000,-0.063,1.000,,,,,
3_S8,09/05/2023,10:23:13.700,0.000,0.000,1.000,,,,,
3_S8,09/05/2023,10:23:13.800,0.000,-0.063,1.000,,,,,
3_S8,09/05/2023,10:23:13.900,0.000,-0.063,1.000,,,,,
3_S8,09/05/2023,10:23:14.000,0.000,-0.125,1.000,-622.5,2254.5,-2301.0,,
3_S8,09/05/2023,10:23:14.100,0.000,-0.063,1.000,,,,,
3_S8,09/05/2023,10:23:14.200,0.000,-0.063,0.938,,,,,
3_S8,09/05/2023,10:23:14.300,0.000,-0.063,1.000,,,,,
3_S8,09/05/2023,10:23:14.400,0.000,-0.063,1.000,,,,,
3_S8,09/05/2023,10:23:14.500,0.000,0.000,1.000,-646.5,2259.0,-2283.0,,
3_S8,09/05/2023,10:23:14.600,0.000,-0.063,0.938,,,,,
3_S8,09/05/2023,10:23:14.700,0.000,-0.125,0.938,,,,,
3_S8,09/05/2023,10:23:14.800,0.000,-0.125,0.938,,,,,
3_S8,09/05/2023,10:23:14.900,0.000,-0.125,0.938,,,,,
3_S8,09/05/2023,10:23:15.000,0.000,-0.125,0.938,-624.0,2259.0,-2289.0,,
3_S8,09/05/2023,10:23:15.100,0.000,-0.063,1.000,,,,,
3_S8,09/05/2023,10:23:15.200,0.000,-0.063,1.000,,,,,
3_S8,09/05/2023,10:23:15.300,0.000,-0.063,0.938,,,,,
3_S8,09/05/2023,10:23:15.400,0.000,-0.063,1.000,,,,,
3_S8,09/05/2023,10:23:15.500,0.000,-0.125,0.938,-633.0,2263.5,-2286.0,,
3_S8,09/05/2023,10:23:15.600,0.000,-0.063,0.938,,,,,
3_S8,09/05/2023,10:23:15.700,0.000,-0.063,0.938,,,,,
3_S8,09/05/2023,10:23:15.800,0.000,-0.125,1.000,,,,,
3_S8,09/05/2023,10:23:15.900,0.000,-0.063,0.938,,,,,
3_S8,09/05/2023,10:23:16.000,0.000,-0.063,0.938,-627.0,2254.5,-2293.5,,
3_S8,09/05/2023,10:23:16.100,0.000,-0.125,0.938,,,,,
3_S8,09/05/2023,10:23:16.200,0.000,0.000,1.000,,,,,
3_S8,09/05/2023,10:23:16.300,0.000,-0.125,0.938,,,,,
3_S8,09/05/2023,10:23:16.400,0.000,-0.125,1.000,,,,,
3_S8,09/05/2023,10:23:16.500,0.000,-0.063,0.938,-631.5,2251.5,-2281.5,,
3_S8,09/05/2023,10:23:16.600,0.000,-0.063,0.938,,,,,
3_S8,09/05/2023,10:23:16.700,0.000,-0.063,1.000,,,,,
3_S8,09/05/2023,10:23:16.800,0.000,-0.125,0.938,,,,,
3_S8,09/05/2023,10:23:16.900,0.000,-0.063,1.000,,,,,
3_S8,09/05/2023,10:23:17.000,0.000,-0.063,1.000,-618.0,2251.5,-2292.0,21,
3_S8,09/05/2023,10:23:17.100,0.000,-0.063,0.944,,,,,
3_S8,09/05/2023,10:23:17.200,0.000,-0.063,0.988,,,,,
3_S8,09/05/2023,10:23:17.300,0.000,-0.106,1.000,,,,,
3_S8,09/05/2023,10:23:17.400,0.000,-0.088,1.000,,,,,
3_S8,09/05/2023,10:23:17.500,0.000,-0.063,1.000,-642.0,2278.5,-2292.0,,
3_S8,09/05/2023,10:23:17.600,0.000,-0.063,0.975,,,,,
3_S8,09/05/2023,10:23:17.700,0.000,-0.081,0.938,,,,,
3_S8,09/05/2023,10:23:17.800,0.000,-0.100,0.950,,,,,
3_S8,09/05/2023,10:23:17.900,0.000,0.000,1.000,,,,,
3_S8,09/05/2023,10:23:18.000,0.000,-0.125,1.000,-634.5,2271.0,-2301.0,,
3_S8,09/05/2023,10:23:18.100,0.000,-0.125,1.000,,,,,
3_S8,09/05/2023,10:23:18.200,0.000,-0.063,1.000,,,,,
3_S8,09/05/2023,10:23:18.300,0.000,-0.063,1.000,,,,,
3_S8,09/05/2023,10:23:18.400,-0.063,-0.063,1.000,,,,,
3_S8,09/05/2023,10:23:18.500,0.000,-0.063,1.000,-634.5,2266.5,-2290.5,,
3_S8,09/05/2023,10:23:18.600,0.000,-0.063,1.000,,,,,
3_S8,09/05/2023,10:23:18.700,0.000,-0.063,0.938,,,,,
3_S8,09/05/2023,10:23:18.800,0.000,-0.063,0.938,,,,,
3_S8,09/05/2023,10:23:18.900,0.000,-0.063,1.000,,,,,
3_S8,09/05/2023,10:23:19.000,0.000,-0.125,0.938,-616.5,2274.0,-2287.5,,
3_S8,09/05/2023,10:23:19.100,0.000,-0.125,1.000,,,,,
3_S8,09/05/2023,10:23:19.200,0.000,-0.063,0.938,,,,,
3_S8,09/05/2023,10:23:19.300,0.000,-0.125,1.000,,,,,
3_S8,09/05/2023,10:23:19.400,0.000,-0.063,0.938,,,,,
3_S8,09/05/2023,10:23:19.500,0.000,-0.063,1.000,-634.5,2269.5,-2301.0,,
3_S8,09/05/2023,10:23:19.600,0.000,-0.063,1.000,,,,,
3_S8,09/05/2023,10:23:19.700,0.000,-0.125,0.938,,,,,
3_S8,09/05/2023,10:23:19.800,0.000,-0.063,1.000,,,,,
3_S8,09/05/2023,10:23:19.900,0.000,-0.063,0.938,,,,,
3_S8,09/05/2023,10:23:20.000,0.000,-0.125,0.938,-633.0,2260.5,-2281.5,,
3_S8,09/05/2023,10:23:20.100,0.000,-0.063,0.938,,,,,
3_S8,09/05/2023,10:23:20.200,0.000,-0.125,1.000,,,,,
3_S8,09/05/2023,10:23:20.300,0.000,-0.063,1.000,,,,,
3_S8,09/05/2023,10:23:20.400,0.000,0.000,1.000,,,,,
3_S8,09/05/2023,10:23:20.500,0.000,-0.063,1.000,-628.5,2260.5,-2296.5,,
3_S8,09/05/2023,10:23:20.600,0.000,-0.063,1.000,,,,,
3_S8,09/05/2023,10:23:20.700,0.000,0.000,1.000,,,,,
3_S8,09/05/2023,10:23:20.800,0.000,-0.125,1.000,,,,,
3_S8,09/05/2023,10:23:20.900,0.000,-0.063,1.000,,,,,
3_S8,09/05/2023,10:23:21.000,0.000,-0.063,0.938,-619.5,2269.5,-2301.0,,
3_S8,09/05/2023,10:23:21.100,0.000,-0.119,0.938,,,,,
3_S8,09/05/2023,10:23:21.200,0.000,-0.075,0.938,,,,,
3_S8,09/05/2023,10:23:21.300,0.000,-0.019,0.938,,,,,
3_S8,09/05/2023,10:23:21.400,0.000,-0.075,0.975,,,,,
3_S8,09/05/2023,10:23:21.500,0.000,-0.125,1.000,-648.0,2266.5,-2296.5,,
3_S8,09/05/2023,10:23:21.600,0.000,-0.100,0.975,,,,,
3_S8,09/05/2023,10:23:21.700,0.000,-0.063,0.938,,,,,
3_S8,09/05/2023,10:23:21.800,0.000,-0.075,0.938,,,,,
3_S8,09/05/2023,10:23:21.900,0.000,-0.125,0.938,,,,,
3_S8,09/05/2023,10:23:22.000,0.000,-0.063,1.000,-628.5,2266.5,-2302.5,22,
3_S8,09/05/2023,10:23:22.100,0.000,-0.063,1.000,,,,,
3_S8,09/05/2023,10:23:22.200,0.000,-0.063,0.938,,,,,
3_S8,09/05/2023,10:23:22.300,0.000,-0.063,0.938,,,,,
3_S8,09/05/2023,10:23:22.400,0.000,-0.063,0.938,,,,,
3_S8,09/05/2023,10:23:22.500,0.000,-0.125,1.000,-636.0,2277.0,-2295.0,,
3_S8,09/05/2023,10:23:22.600,0.000,-0.125,1.000,,,,,
3_S8,09/05/2023,10:23:22.700,0.000,-0.063,0.938,,,,,
3_S8,09/05/2023,10:23:22.800,0.000,-0.125,1.000,,,,,
3_S8,09/05/2023,10:23:22.900,0.000,-0.063,0.938,,,,,
3_S8,09/05/2023,10:23:23.000,0.000,-0.063,0.938,-637.5,2283.0,-2301.0,,
3_S8,09/05/2023,10:23:23.100,0.000,-0.063,1.000,,,,,
3_S8,09/05/2023,10:23:23.200,0.000,-0.125,0.938,,,,,
3_S8,09/05/2023,10:23:23.300,0.000,-0.063,1.000,,,,,
3_S8,09/05/2023,10:23:23.400,0.000,-0.063,0.938,,,,,
3_S8,09/05/2023,10:23:23.500,0.000,-0.125,0.938,-645.0,2259.0,-2305.5,,
3_S8,09/05/2023,10:23:23.600,0.000,-0.125,0.938,,,,,
3_S8,09/05/2023,10:23:23.700,0.000,-0.125,0.938,,,,,
3_S8,09/05/2023,10:23:23.800,0.000,-0.063,0.938,,,,,
3_S8,09/05/2023,10:23:23.900,0.000,0.000,1.000,,,,,
3_S8,09/05/2023,10:23:24.000,0.000,-0.063,0.938,-622.5,2259.0,-2293.5,,
3_S8,09/05/2023,10:23:24.100,0.000,-0.125,1.000,,,,,
3_S8,09/05/2023,10:23:24.200,0.000,-0.063,1.000,,,,,
3_S8,09/05/2023,10:23:24.300,0.000,-0.125,1.000,,,,,
3_S8,09/05/2023,10:23:24.400,-0.063,-0.063,0.938,,,,,
3_S8,09/05/2023,10:23:24.500,0.000,-0.063,0.938,-634.5,2271.0,-2289.0,,
3_S8,09/05/2023,10:23:24.600,0.000,-0.125,1.000,,,,,
3_S8,09/05/2023,10:23:24.700,0.000,-0.063,0.938,,,,,
3_S8,09/05/2023,10:23:24.800,-0.063,-0.063,0.938,,,,,
3_S8,09/05/2023,10:23:24.900,0.000,-0.063,0.938,,,,,
3_S8,09/05/2023,10:23:25.000,0.000,-0.125,0.938,-634.5,2266.5,-2295.0,,
3_S8,09/05/2023,10:23:25.100,0.000,-0.125,0.938,,,,,
3_S8,09/05/2023,10:23:25.200,0.000,-0.075,0.938,,,,,
3_S8,09/05/2023,10:23:25.300,0.000,-0.063,0.938,,,,,
3_S8,09/05/2023,10:23:25.400,0.000,-0.100,0.975,,,,,
3_S8,09/05/2023,10:23:25.500,0.000,-0.094,1.000,-639.0,2254.5,-2277.0,,
3_S8,09/05/2023,10:23:25.600,0.000,-0.063,0.975,,,,,
3_S8,09/05/2023,10:23:25.700,-0.019,-0.063,0.938,,,,,
3_S8,09/05/2023,10:23:25.800,-0.050,-0.050,0.950,,,,,
3_S8,09/05/2023,10:23:25.900,0.000,0.000,1.000,,,,,
3_S8,09/05/2023,10:23:26.000,0.000,-0.063,0.938,-634.5,2254.5,-2284.5,,
3_S8,09/05/2023,10:23:26.100,0.000,-0.125,0.938,,,,,
3_S8,09/05/2023,10:23:26.200,0.000,-0.063,0.938,,,,,
3_S8,09/05/2023,10:23:26.300,0.000,-0.125,0.938,,,,,
3_S8,09/05/2023,10:23:26.400,0.000,-0.063,0.938,,,,,
3_S8,09/05/2023,10:23:26.500,0.000,-0.063,0.938,-628.5,2254.5,-2287.5,,
3_S8,09/05/2023,10:23:26.600,0.000,-0.063,0.938,,,,,
3_S8,09/05/2023,10:23:26.700,0.000,-0.125,1.000,,,,,
3_S8,09/05/2023,10:23:26.800,0.000,-0.063,0.938,,,,,
3_S8,09/05/2023,10:23:26.900,-0.063,-0.125,0.938,,,,,
3_S8,09/05/2023,10:23:27.000,0.000,-0.125,1.000,-636.0,2265.0,-2281.5,22,
3_S8,09/05/2023,10:23:27.100,0.000,0.000,0.938,,,,,
3_S8,09/05/2023,10:23:27.200,0.000,-0.063,0.938,,,,,
3_S8,09/05/2023,10:23:27.300,0.000,-0.063,1.000,,,,,
3_S8,09/05/2023,10:23:27.400,0.000,-0.063,1.000,,,,,
3_S8,09/05/2023,10:23:27.500,0.000,-0.063,0.938,-634.5,2266.5,-2301.0,,
3_S8,09/05/2023,10:23:27.600,0.000,-0.063,0.938,,,,,
3_S8,09/05/2023,10:23:27.700,0.000,-0.063,1.000,,,,,
3_S8,09/05/2023,10:23:27.800,0.000,-0.063,1.000,,,,,
3_S8,09/05/2023,10:23:27.900,0.000,-0.125,0.938,,,,,
3_S8,09/05/2023,10:23:28.000,0.000,-0.063,1.000,-628.5,2263.5,-2277.0,,
3_S8,09/05/2023,10:23:28.100,0.000,-0.063,0.938,,,,,
3_S8,09/05/2023,10:23:28.200,0.000,-0.063,0.938,,,,,
3_S8,09/05/2023,10:23:28.300,0.000,-0.063,0.938,,,,,
3_S8,09/05/2023,10:23:28.400,0.000,-0.063,0.938,,,,,
3_S8,09/05/2023,10:23:28.500,0.000,-0.125,0.938,-622.5,2269.5,-2301.0,,
3_S8,09/05/2023,10:23:28.600,0.000,-0.063,0.938,,,,,
3_S8,09/05/2023,10:23:28.700,0.000,-0.125,0.938,,,,,
3_S8,09/05/2023,10:23:28.800,0.000,-0.063,1.000,,,,,
3_S8,09/05/2023,10:23:28.900,0.000,-0.063,1.000,,,,,
3_S8,09/05/2023,10:23:29.000,0.000,0.000,0.938,-621.0,2256.0,-2302.5,,
3_S8,09/05/2023,10:23:29.100,0.000,-0.056,0.938,,,,,
3_S8,09/05/2023,10:23:29.200,0.000,-0.063,0.938,,,,,
3_S8,09/05/2023,10:23:29.300,0.000,-0.106,0.982,,,,,
3_S8,09/05/2023,10:23:29.400,0.000,-0.088,1.000,,,,,
3_S8,09/05/2023,10:23:29.500,0.000,-0.063,0.969,-636.0,2253.0,-2305.5,,
3_S8,09/05/2023,10:23:29.600,0.000,-0.063,0.938,,,,,
3_S8,09/05/2023,10:23:29.700,0.000,-0.063,0.957,,,,,
3_S8,09/05/2023,10:23:29.800,0.000,-0.063,0.988,,,,,
3_S8,09/05/2023,10:23:29.900,0.000,-0.063,0.938,,,,,
3_S8,09/05/2023,10:23:30.000,0.000,-0.063,0.938,-618.0,2278.5,-2293.5,,
3_S8,09/05/2023,10:23:30.100,0.000,-0.063,1.000,,,,,
3_S8,09/05/2023,10:23:30.200,0.000,-0.063,1.000,,,,,
3_S8,09/05/2023,10:23:30.300,0.000,-0.063,1.000,,,,,
3_S8,09/05/2023,10:23:30.400,0.000,-0.125,0.938,,,,,
3_S8,09/05/2023,10:23:30.500,0.000,-0.063,0.938,-607.5,2251.5,-2289.0,,
3_S8,09/05/2023,10:23:30.600,0.000,-0.125,0.938,,,,,
3_S8,09/05/2023,10:23:30.700,0.000,-0.063,0.875,,,,,
3_S8,09/05/2023,10:23:30.800,0.000,-0.125,0.938,,,,,
3_S8,09/05/2023,10:23:30.900,0.000,-0.125,1.000,,,,,
3_S8,09/05/2023,10:23:31.000,0.000,-0.125,1.000,-628.5,2257.5,-2283.0,,
3_S8,09/05/2023,10:23:31.100,0.000,-0.125,0.938,,,,,
3_S8,09/05/2023,10:23:31.200,0.000,-0.125,1.000,,,,,
3_S8,09/05/2023,10:23:31.300,0.000,-0.125,1.000,,,,,
3_S8,09/05/2023,10:23:31.400,0.000,-0.063,1.000,,,,,
3_S8,09/05/2023,10:23:31.500,0.000,-0.063,1.000,-633.0,2268.0,-2277.0,,
3_S8,09/05/2023,10:23:31.600,0.000,-0.125,1.000,,,,,
3_S8,09/05/2023,10:23:31.700,0.000,-0.125,0.938,,,,,
3_S8,09/05/2023,10:23:31.800,0.000,-0.063,1.000,,,,,
3_S8,09/05/2023,10:23:31.900,0.000,-0.063,1.000,,,,,
3_S8,09/05/2023,10:23:32.000,0.000,-0.063,1.000,-615.0,2250.0,-2296.5,22,
3_S8,09/05/2023,10:23:32.100,0.000,-0.063,0.938,,,,,
3_S8,09/05/2023,10:23:32.200,0.000,-0.063,0.938,,,,,
3_S8,09/05/2023,10:23:32.300,0.000,-0.063,0.938,,,,,
3_S8,09/05/2023,10:23:32.400,0.000,-0.063,0.938,,,,,
3_S8,09/05/2023,10:23:32.500,0.000,-0.125,1.000,-622.5,2271.0,-2299.5,,
3_S8,09/05/2023,10:23:32.600,0.000,-0.063,0.938,,,,,
3_S8,09/05/2023,10:23:32.700,0.000,-0.063,0.938,,,,,
3_S8,09/05/2023,10:23:32.800,0.000,-0.063,0.938,,,,,
3_S8,09/05/2023,10:23:32.900,0.000,-0.063,1.000,,,,,
3_S8,09/05/2023,10:23:33.000,0.000,-0.125,0.938,-639.0,2277.0,-2302.5,,
3_S8,09/05/2023,10:23:33.100,0.000,-0.069,0.994,,,,,
3_S8,09/05/2023,10:23:33.200,-0.150,-0.063,1.050,,,,,
3_S8,09/05/2023,10:23:33.300,-0.056,-0.063,1.019,,,,,
3_S8,09/05/2023,10:23:33.400,0.000,-0.063,0.963,,,,,
3_S8,09/05/2023,10:23:33.500,0.000,-0.094,0.938,-639.0,2271.0,-2289.0,,
3_S8,09/05/2023,10:23:33.600,0.000,-0.125,0.938,,,,,
3_S8,09/05/2023,10:23:33.700,0.000,-0.106,0.938,,,,,
3_S8,09/05/2023,10:23:33.800,0.013,-0.063,0.950,,,,,
3_S8,09/05/2023,10:23:33.900,0.063,-0.063,1.000,,,,,
3_S8,09/05/2023,10:23:34.000,0.063,-0.063,1.000,-772.5,2239.5,-2214.0,,
3_S8,09/05/2023,10:23:34.100,0.000,-0.125,0.938,,,,,
3_S8,09/05/2023,10:23:34.200,-0.188,-0.063,0.938,,,,,
3_S8,09/05/2023,10:23:34.300,-0.063,-0.125,1.000,,,,,
3_S8,09/05/2023,10:23:34.400,0.000,-0.125,0.875,,,,,
3_S8,09/05/2023,10:23:34.500,-0.063,-0.125,0.938,-1134.0,2179.5,-1968.0,,
3_S8,09/05/2023,10:23:34.600,-0.063,-0.063,1.000,,,,,
3_S8,09/05/2023,10:23:34.700,-0.063,-0.063,1.000,,,,,
3_S8,09/05/2023,10:23:34.800,0.000,-0.125,1.000,,,,,
3_S8,09/05/2023,10:23:34.900,-0.063,-0.063,1.000,,,,,
3_S8,09/05/2023,10:23:35.000,0.000,0.000,1.000,-2698.5,3283.5,-1494.0,,
3_S8,09/05/2023,10:23:35.100,-0.063,-0.125,1.000,,,,,
3_S8,09/05/2023,10:23:35.200,-0.188,-0.063,0.938,,,,,
3_S8,09/05/2023,10:23:35.300,0.000,-0.063,0.938,,,,,
3_S8,09/05/2023,10:23:35.400,0.000,-0.125,1.000,,,,,
3_S8,09/05/2023,10:23:35.500,0.000,-0.063,0.938,1807.5,4867.5,1929.0,,
3_S8,09/05/2023,10:23:35.600,0.000,-0.125,1.000,,,,,
3_S8,09/05/2023,10:23:35.700,0.063,-0.063,0.938,,,,,
3_S8,09/05/2023,10:23:35.800,0.000,-0.063,0.938,,,,,
3_S8,09/05/2023,10:23:35.900,0.063,0.125,1.000,,,,,
3_S8,09/05/2023,10:23:36.000,-0.063,-0.125,0.938,-813.0,3958.5,573.0,,
3_S8,09/05/2023,10:23:36.100,-0.063,-0.063,0.938,,,,,
3_S8,09/05/2023,10:23:36.200,-0.063,-0.125,1.063,,,,,
3_S8,09/05/2023,10:23:36.300,0.000,-0.125,0.875,,,,,
3_S8,09/05/2023,10:23:36.400,0.000,-0.125,1.000,,,,,
3_S8,09/05/2023,10:23:36.500,0.000,-0.125,0.938,-2218.5,2706.0,-1054.5,,
3_S8,09/05/2023,10:23:36.600,-0.125,-0.125,0.938,,,,,
3_S8,09/05/2023,10:23:36.700,0.000,-0.063,1.000,,,,,
3_S8,09/05/2023,10:23:36.800,-0.563,0.563,0.875,,,,,
3_S8,09/05/2023,10:23:36.900,-0.063,-0.063,0.938,,,,,
3_S8,09/05/2023,10:23:37.000,0.000,-0.125,0.938,-645.0,2526.0,-2262.0,22,
3_S8,09/05/2023,10:23:37.100,-0.056,0.156,0.994,,,,,
3_S8,09/05/2023,10:23:37.200,-0.013,-0.013,1.000,,,,,
3_S8,09/05/2023,10:23:37.300,0.044,-0.106,0.957,,,,,
3_S8,09/05/2023,10:23:37.400,0.025,-0.125,0.975,,,,,
3_S8,09/05/2023,10:23:37.500,0.031,-0.094,0.969,-598.5,2859.0,-4482.0,,
3_S8,09/05/2023,10:23:37.600,0.038,-0.063,0.963,,,,,
3_S8,09/05/2023,10:23:37.700,0.000,-0.081,0.982,,,,,
3_S8,09/05/2023,10:23:37.800,0.000,-0.113,0.950,,,,,
3_S8,09/05/2023,10:23:37.900,0.000,-0.063,1.000,,,,,
3_S8,09/05/2023,10:23:38.000,0.000,-0.063,0.938,-775.5,2326.5,-2248.5,,
3_S8,09/05/2023,10:23:38.100,0.000,0.000,1.000,,,,,
3_S8,09/05/2023,10:23:38.200,0.000,0.000,0.938,,,,,
3_S8,09/05/2023,10:23:38.300,0.000,0.000,1.000,,,,,
3_S8,09/05/2023,10:23:38.400,0.000,0.000,1.000,,,,,
3_S8,09/05/2023,10:23:38.500,0.000,0.000,1.000,-1009.5,2017.5,-1869.0,,
3_S8,09/05/2023,10:23:38.600,0.063,0.000,0.938,,,,,
3_S8,09/05/2023,10:23:38.700,0.000,0.000,0.938,,,,,
3_S8,09/05/2023,10:23:38.800,0.000,0.000,1.000,,,,,
3_S8,09/05/2023,10:23:38.900,0.000,-0.063,0.938,,,,,
3_S8,09/05/2023,10:23:39.000,0.000,-0.063,0.938,-2197.5,2442.0,-1164.0,,
3_S8,09/05/2023,10:23:39.100,0.000,-0.063,0.938,,,,,
3_S8,09/05/2023,10:23:39.200,0.000,-0.125,0.938,,,,,
3_S8,09/05/2023,10:23:39.300,0.000,-0.125,1.000,,,,,
3_S8,09/05/2023,10:23:39.400,0.000,-0.063,0.938,,,,,
3_S8,09/05/2023,10:23:39.500,0.000,-0.063,0.938,-2377.5,2677.5,-1062.0,,
3_S8,09/05/2023,10:23:39.600,0.000,-0.063,0.938,,,,,
3_S8,09/05/2023,10:23:39.700,0.000,0.000,0.938,,,,,
3_S8,09/05/2023,10:23:39.800,0.000,-0.125,0.938,,,,,
3_S8,09/05/2023,10:23:39.900,0.000,0.000,1.000,,,,,
3_S8,09/05/2023,10:23:40.000,0.063,-0.063,1.000,-967.5,2346.0,-1827.0,,
3_S8,09/05/2023,10:23:40.100,0.000,-0.063,0.938,,,,,
3_S8,09/05/2023,10:23:40.200,0.000,-0.125,0.938,,,,,
3_S8,09/05/2023,10:23:40.300,0.000,0.063,0.938,,,,,
3_S8,09/05/2023,10:23:40.400,0.000,-0.063,1.000,,,,,
3_S8,09/05/2023,10:23:40.500,0.000,-0.063,1.000,-808.5,2478.0,-2625.0,,
3_S8,09/05/2023,10:23:40.600,0.000,0.000,1.000,,,,,
3_S8,09/05/2023,10:23:40.700,0.000,0.000,0.938,,,,,
3_S8,09/05/2023,10:23:40.800,0.000,-0.125,1.000,,,,,
3_S8,09/05/2023,10:23:40.900,0.000,0.000,1.000,,,,,
3_S8,09/05/2023,10:23:41.000,0.000,0.000,1.000,-1044.0,2757.0,-3207.0,,
3_S8,09/05/2023,10:23:41.100,0.000,-0.056,1.000,,,,,
3_S8,09/05/2023,10:23:41.200,0.000,-0.013,0.950,,,,,
3_S8,09/05/2023,10:23:41.300,0.000,-0.044,0.938,,,,,
3_S8,09/05/2023,10:23:41.400,0.000,-0.063,0.975,,,,,
3_S8,09/05/2023,10:23:41.500,0.000,-0.031,1.000,-913.5,2268.0,-2181.0,,
3_S8,09/05/2023,10:23:41.600,0.000,0.000,0.975,,,,,
3_S8,09/05/2023,10:23:41.700,0.000,-0.019,0.938,,,,,
3_S8,09/05/2023,10:23:41.800,0.000,-0.063,0.938,,,,,
3_S8,09/05/2023,10:23:41.900,0.000,-0.063,0.938,,,,,
3_S8,09/05/2023,10:23:42.000,0.000,0.000,0.938,-1264.5,2263.5,-1726.5,22,
3_S8,09/05/2023,10:23:42.100,0.000,-0.063,0.938,,,,,
3_S8,09/05/2023,10:23:42.200,0.000,-0.125,0.938,,,,,
3_S8,09/05/2023,10:23:42.300,0.000,-0.063,0.938,,,,,
3_S8,09/05/2023,10:23:42.400,0.000,-0.063,1.000,,,,,
3_S8,09/05/2023,10:23:42.500,0.000,0.000,0.938,-1546.5,2154.0,-1503.0,,
3_S8,09/05/2023,10:23:42.600,0.000,-0.063,1.000,,,,,
3_S8,09/05/2023,10:23:42.700,0.000,-0.125,1.000,,,,,
3_S8,09/05/2023,10:23:42.800,0.000,-0.063,0.938,,,,,
3_S8,09/05/2023,10:23:42.900,0.000,-0.063,1.000,,,,,
3_S8,09/05/2023,10:23:43.000,0.000,-0.063,1.000,-2200.5,2385.0,-1138.5,,
3_S8,09/05/2023,10:23:43.100,0.000,-0.063,1.000,,,,,
3_S8,09/05/2023,10:23:43.200,0.000,-0.063,0.938,,,,,
3_S8,09/05/2023,10:23:43.300,0.000,-0.063,0.938,,,,,
3_S8,09/05/2023,10:23:43.400,0.000,-0.063,1.000,,,,,
3_S8,09/05/2023,10:23:43.500,0.000,-0.188,1.000,-1650.0,2554.5,-1845.0,,
3_S8,09/05/2023,10:23:43.600,0.000,-0.063,0.938,,,,,
3_S8,09/05/2023,10:23:43.700,0.000,-0.063,0.938,,,,,
3_S8,09/05/2023,10:23:43.800,0.000,0.000,0.938,,,,,
3_S8,09/05/2023,10:23:43.900,0.000,-0.125,1.063,,,,,
3_S8,09/05/2023,10:23:44.000,0.063,0.000,1.000,-763.5,2179.5,-2023.5,,
3_S8,09/05/2023,10:23:44.100,0.000,-0.063,1.000,,,,,
3_S8,09/05/2023,10:23:44.200,0.000,-0.063,0.938,,,,,
3_S8,09/05/2023,10:23:44.300,0.000,-0.063,0.938,,,,,
3_S8,09/05/2023,10:23:44.400,0.000,-0.063,0.938,,,,,
3_S8,09/05/2023,10:23:44.500,0.000,-0.063,1.000,-825.0,2368.5,-2398.5,,
3_S8,09/05/2023,10:23:44.600,0.000,0.000,0.938,,,,,
3_S8,09/05/2023,10:23:44.700,0.000,-0.063,1.000,,,,,
3_S8,09/05/2023,10:23:44.800,0.000,-0.063,0.938,,,,,
3_S8,09/05/2023,10:23:44.900,0.000,-0.063,1.000,,,,,
3_S8,09/05/2023,10:23:45.000,0.000,-0.063,0.938,-1098.0,2763.0,-3220.5,,
3_S8,09/05/2023,10:23:45.100,0.000,-0.006,0.938,,,,,
3_S8,09/05/2023,10:23:45.200,0.000,0.000,0.938,,,,,
3_S8,09/05/2023,10:23:45.300,0.000,-0.088,0.982,,,,,
3_S8,09/05/2023,10:23:45.400,0.000,-0.088,1.000,,,,,
3_S8,09/05/2023,10:23:45.500,0.000,-0.031,1.000,-1092.0,2391.0,-2299.5,,
3_S8,09/05/2023,10:23:45.600,0.000,0.000,1.000,,,,,
3_S8,09/05/2023,10:23:45.700,0.000,-0.019,1.000,,,,,
3_S8,09/05/2023,10:23:45.800,0.000,-0.050,1.000,,,,,
3_S8,09/05/2023,10:23:45.900,0.000,0.000,1.000,,,,,
3_S8,09/05/2023,10:23:46.000,0.000,-0.063,1.000,-1246.5,2242.5,-1734.0,,
3_S8,09/05/2023,10:23:46.100,0.000,-0.125,1.000,,,,,
3_S8,09/05/2023,10:23:46.200,0.063,-0.063,1.000,,,,,
3_S8,09/05/2023,10:23:46.300,0.000,-0.063,0.938,,,,,
3_S8,09/05/2023,10:23:46.400,0.000,-0.125,1.000,,,,,
3_S8,09/05/2023,10:23:46.500,0.000,0.000,0.938,-1417.5,2100.0,-1537.5,,
3_S8,09/05/2023,10:23:46.600,0.000,0.000,1.000,,,,,
3_S8,09/05/2023,10:23:46.700,0.000,-0.125,1.000,,,,,
3_S8,09/05/2023,10:23:46.800,0.000,0.000,0.938,,,,,
3_S8,09/05/2023,10:23:46.900,0.000,-0.063,1.000,,,,,
3_S8,09/05/2023,10:23:47.000,0.000,-0.063,0.938,-2431.5,2605.5,-1081.5,22,
3_S8,09/05/2023,10:23:47.100,0.000,-0.063,1.000,,,,,
3_S8,09/05/2023,10:23:47.200,0.000,-0.063,1.000,,,,,
3_S8,09/05/2023,10:23:47.300,0.000,0.000,1.000,,,,,
3_S8,09/05/2023,10:23:47.400,0.000,-0.063,1.000,,,,,
3_S8,09/05/2023,10:23:47.500,0.000,0.000,1.000,-1446.0,2545.5,-1866.0,,
3_S8,09/05/2023,10:23:47.600,0.000,0.000,1.000,,,,,
3_S8,09/05/2023,10:23:47.700,0.063,-0.063,0.938,,,,,
3_S8,09/05/2023,10:23:47.800,0.000,-0.063,1.000,,,,,
3_S8,09/05/2023,10:23:47.900,0.000,-0.063,1.000,,,,,
3_S8,09/05/2023,10:23:48.000,0.000,-0.063,0.938,-816.0,2085.0,-1989.0,,
3_S8,09/05/2023,10:23:48.100,0.000,-0.063,0.938,,,,,
3_S8,09/05/2023,10:23:48.200,0.000,-0.063,1.000,,,,,
3_S8,09/05/2023,10:23:48.300,0.000,-0.063,0.938,,,,,
3_S8,09/05/2023,10:23:48.400,0.000,-0.063,1.000,,,,,
3_S8,09/05/2023,10:23:48.500,0.000,-0.063,0.938,-808.5,2343.0,-2346.0,,
3_S8,09/05/2023,10:23:48.600,0.000,0.000,0.938,,,,,
3_S8,09/05/2023,10:23:48.700,0.000,0.000,0.938,,,,,
3_S8,09/05/2023,10:23:48.800,0.000,-0.125,1.000,,,,,
3_S8,09/05/2023,10:23:48.900,0.000,-0.063,1.000,,,,,
3_S8,09/05/2023,10:23:49.000,0.000,-0.063,0.938,-1182.0,2841.0,-3435.0,,
3_S8,09/05/2023,10:23:49.100,0.000,-0.119,0.994,,,,,
3_S8,09/05/2023,10:23:49.200,0.000,-0.025,0.950,,,,,
3_S8,09/05/2023,10:23:49.300,0.000,-0.044,0.982,,,,,
3_S8,09/05/2023,10:23:49.400,0.000,-0.025,0.963,,,,,
3_S8,09/05/2023,10:23:49.500,0.000,0.000,1.000,-1684.5,2661.0,-2628.0,,
3_S8,09/05/2023,10:23:49.600,0.000,0.000,1.038,,,,,
3_S8,09/05/2023,10:23:49.700,0.000,-0.019,0.982,,,,,
3_S8,09/05/2023,10:23:49.800,0.000,-0.063,0.938,,,,,
3_S8,09/05/2023,10:23:49.900,0.000,-0.063,0.938,,,,,
3_S8,09/05/2023,10:23:50.000,0.000,-0.063,0.938,-1264.5,2209.5,-1690.5,,
3_S8,09/05/2023,10:23:50.100,0.000,-0.063,1.000,,,,,
3_S8,09/05/2023,10:23:50.200,0.000,-0.063,0.938,,,,,
3_S8,09/05/2023,10:23:50.300,0.000,-0.063,0.938,,,,,
3_S8,09/05/2023,10:23:50.400,0.000,-0.125,0.938,,,,,
3_S8,09/05/2023,10:23:50.500,0.000,0.000,1.000,-1428.0,2104.5,-1554.0,,
3_S8,09/05/2023,10:23:50.600,0.000,-0.125,0.938,,,,,
3_S8,09/05/2023,10:23:50.700,0.000,-0.063,0.938,,,,,
3_S8,09/05/2023,10:23:50.800,0.000,-0.063,1.000,,,,,
3_S8,09/05/2023,10:23:50.900,0.000,-0.063,1.000,,,,,
3_S8,09/05/2023,10:23:51.000,0.000,0.000,1.000,-2017.5,2365.5,-1375.5,,
3_S8,09/05/2023,10:23:51.100,0.000,-0.063,0.938,,,,,
3_S8,09/05/2023,10:23:51.200,0.000,0.000,1.000,,,,,
3_S8,09/05/2023,10:23:51.300,0.000,-0.063,0.938,,,,,
3_S8,09/05/2023,10:23:51.400,0.000,-0.063,1.000,,,,,
3_S8,09/05/2023,10:23:51.500,0.000,0.000,0.938,-1144.5,2329.5,-1903.5,,
3_S8,09/05/2023,10:23:51.600,0.000,-0.125,1.000,,,,,
3_S8,09/05/2023,10:23:51.700,0.000,-0.063,1.000,,,,,
3_S8,09/05/2023,10:23:51.800,0.000,-0.063,1.000,,,,,
3_S8,09/05/2023,10:23:51.900,0.000,-0.063,0.938,,,,,
3_S8,09/05/2023,10:23:52.000,0.000,-0.063,1.000,-798.0,2088.0,-2004.0,22,
3_S8,09/05/2023,10:23:52.100,0.000,-0.063,0.938,,,,,
3_S8,09/05/2023,10:23:52.200,-0.063,-0.063,0.938,,,,,
3_S8,09/05/2023,10:23:52.300,0.000,-0.063,0.938,,,,,
3_S8,09/05/2023,10:23:52.400,0.000,-0.063,0.938,,,,,
3_S8,09/05/2023,10:23:52.500,0.000,0.000,0.938,-847.5,2443.5,-2506.5,,
3_S8,09/05/2023,10:23:52.600,0.000,-0.063,0.938,,,,,
3_S8,09/05/2023,10:23:52.700,0.000,-0.063,1.000,,,,,
3_S8,09/05/2023,10:23:52.800,0.000,0.000,1.000,,,,,
3_S8,09/05/2023,10:23:52.900,0.000,-0.063,1.000,,,,,
3_S8,09/05/2023,10:23:53.000,0.000,-0.063,0.938,-1597.5,2671.5,-2785.5,,
3_S8,09/05/2023,10:23:53.100,0.000,-0.063,0.994,,,,,
3_S8,09/05/2023,10:23:53.200,0.000,-0.013,1.000,,,,,
3_S8,09/05/2023,10:23:53.300,0.000,0.000,0.957,,,,,
3_S8,09/05/2023,10:23:53.400,0.000,-0.038,0.938,,,,,
3_S8,09/05/2023,10:23:53.500,0.000,-0.031,0.969,-1084.5,2257.5,-1915.5,,
3_S8,09/05/2023,10:23:53.600,0.000,-0.025,1.000,,,,,
3_S8,09/05/2023,10:23:53.700,0.000,-0.044,1.000,,,,,
3_S8,09/05/2023,10:23:53.800,0.000,0.000,1.000,,,,,
3_S8,09/05/2023,10:23:53.900,0.000,0.000,1.000,,,,,
3_S8,09/05/2023,10:23:54.000,0.000,0.000,1.000,-1524.0,2124.0,-1504.5,,
3_S8,09/05/2023,10:23:54.100,0.000,-0.063,0.938,,,,,
3_S8,09/05/2023,10:23:54.200,0.000,-0.063,0.938,,,,,
3_S8,09/05/2023,10:23:54.300,0.000,0.000,0.938,,,,,
3_S8,09/05/2023,10:23:54.400,0.000,-0.063,1.000,,,,,
3_S8,09/05/2023,10:23:54.500,0.000,-0.063,1.000,-2068.5,2379.0,-1239.0,,
3_S8,09/05/2023,10:23:54.600,0.000,-0.063,0.938,,,,,
3_S8,09/05/2023,10:23:54.700,0.000,-0.063,1.000,,,,,
3_S8,09/05/2023,10:23:54.800,0.063,-0.125,1.000,,,,,
3_S8,09/05/2023,10:23:54.900,0.000,-0.063,0.938,,,,,
3_S8,09/05/2023,10:23:55.000,0.000,-0.063,0.938,-2070.0,2374.5,-1240.5,,
3_S8,09/05/2023,10:23:55.100,0.000,0.000,0.938,,,,,
3_S8,09/05/2023,10:23:55.200,0.063,-0.063,1.000,,,,,
3_S8,09/05/2023,10:23:55.300,0.000,-0.063,1.000,,,,,
3_S8,09/05/2023,10:23:55.400,0.000,0.000,0.938,,,,,
3_S8,09/05/2023,10:23:55.500,0.000,0.000,1.000,-1576.5,2532.0,-1848.0,,
3_S8,09/05/2023,10:23:55.600,0.000,-0.063,0.938,,,,,
3_S8,09/05/2023,10:23:55.700,0.000,-0.063,0.938,,,,,
3_S8,09/05/2023,10:23:55.800,0.000,-0.063,1.000,,,,,
3_S8,09/05/2023,10:23:55.900,0.000,-0.063,1.000,,,,,
3_S8,09/05/2023,10:23:56.000,0.000,-0.063,1.000,-762.0,2134.5,-2004.0,,
3_S8,09/05/2023,10:23:56.100,0.000,-0.063,1.000,,,,,
3_S8,09/05/2023,10:23:56.200,0.000,-0.063,0.938,,,,,
3_S8,09/05/2023,10:23:56.300,0.000,0.000,1.000,,,,,
3_S8,09/05/2023,10:23:56.400,0.000,0.000,1.000,,,,,
3_S8,09/05/2023,10:23:56.500,0.000,0.000,0.938,-819.0,2565.0,-2734.5,,
