TagID,Date,Time,accX,accY,accZ,gyroX,gyroY,gyroZ,compX,compY,compZ,Activity,Depth,Temp. (?C),Metadata
04_S4_S5,04/05/2023,16:59:14.000,0.0186,0.9207,0.3572,0.5646,-3.4409,0.9766,-31.2341,-54.0028,-52.8352,Active,8.80211531070097,-368.68,
04_S4_S5,04/05/2023,16:59:14.100,0.0217,0.9570,0.3521,4.9667,-3.7918,1.0757,-30.9422,-52.8352,-53.1271,,,,
04_S4_S5,04/05/2023,16:59:14.200,0.0359,0.9646,0.3450,8.2169,-3.3112,-2.4185,-30.0664,-52.8352,-54.0028,,,,
04_S4_S5,04/05/2023,16:59:14.300,0.0249,0.9526,0.3044,4.7302,7.8125,1.2970,-31.3800,-54.4407,-55.3164,,,,
04_S4_S5,04/05/2023,16:59:14.400,0.0203,0.9744,0.2915,12.2604,7.9575,-0.8392,-31.3800,-54.4407,-55.3164,,,,
04_S4_S5,04/05/2023,16:59:14.500,0.0154,0.9963,0.2783,19.7906,8.1100,-2.9755,-31.3800,-54.4407,-55.3164,,,,
04_S4_S5,04/05/2023,16:59:14.600,0.0037,0.9980,0.2117,41.4429,15.0146,-0.8698,-31.2341,-53.7109,-55.4624,,,,
04_S4_S5,04/05/2023,16:59:14.700,0.0012,0.9875,0.1353,36.1786,12.5351,-2.3270,-30.5043,-53.8569,-58.5274,,,,
04_S4_S5,04/05/2023,16:59:14.800,-0.0142,1.0178,0.0718,28.7094,5.2338,-0.6485,-31.6719,-52.6892,-61.4465,,,,
04_S4_S5,04/05/2023,16:59:14.900,0.0156,1.0144,0.0310,29.9530,10.3378,5.6458,-30.2124,-54.4407,-62.6141,,,,
04_S4_S5,04/05/2023,16:59:15.000,0.0220,1.0103,-0.0103,27.4353,7.1182,5.2261,-30.2124,-54.4407,-62.6141,Inactive,0,21.12,
04_S4_S5,04/05/2023,16:59:15.100,0.0159,1.0005,-0.0586,21.4233,3.9368,1.9455,-30.2124,-53.8569,-64.6574,,,,
04_S4_S5,04/05/2023,16:59:15.200,0.0244,0.9976,-0.1003,31.8756,9.1782,1.2589,-29.3367,-53.8569,-65.2413,,,,
04_S4_S5,04/05/2023,16:59:15.300,0.0293,0.9851,-0.1887,43.1900,3.4561,2.1057,-28.8988,-54.5866,-70.0577,,,,
04_S4_S5,04/05/2023,16:59:15.400,0.0393,0.9729,-0.2468,41.3513,7.9727,2.2125,-27.4393,-55.1705,-70.6415,,,,
04_S4_S5,04/05/2023,16:59:15.500,0.0320,0.9546,-0.3062,27.9160,9.4070,-1.8692,-27.4393,-55.1705,-70.6415,,,,
04_S4_S5,04/05/2023,16:59:15.600,0.0303,0.9282,-0.3477,24.5819,14.3509,0.8469,-26.7095,-54.7326,-72.8308,,,,
04_S4_S5,04/05/2023,16:59:15.700,0.0386,0.9221,-0.4233,38.1165,4.1656,3.6774,-24.8121,-54.2947,-72.9768,,,,
04_S4_S5,04/05/2023,16:59:15.800,0.0374,0.8821,-0.4961,46.5775,-1.4801,-2.4567,-23.0607,-55.7543,-76.7716,,,,
04_S4_S5,04/05/2023,16:59:15.900,0.0261,0.8484,-0.4990,15.8005,-2.4414,-0.7858,-22.9147,-55.6083,-79.2528,,,,
04_S4_S5,04/05/2023,16:59:16.000,0.0498,0.8479,-0.5498,23.0331,-7.4844,5.8060,-22.9147,-55.6083,-79.2528,Inactive,0,21.14,
04_S4_S5,04/05/2023,16:59:16.100,0.0095,0.7803,-0.6074,40.5655,-8.3084,-0.0839,-22.0390,-54.7326,-80.1285,,,,
04_S4_S5,04/05/2023,16:59:16.200,0.0061,0.7566,-0.6101,16.5482,-3.3340,-0.2365,-20.4335,-54.2947,-81.4421,,,,
04_S4_S5,04/05/2023,16:59:16.300,0.0056,0.7471,-0.6650,30.5939,1.7395,-6.1417,-18.8280,-54.4407,-81.2962,,,,
04_S4_S5,04/05/2023,16:59:16.400,-0.0078,0.6931,-0.7227,30.7007,1.7700,-4.7913,-16.6387,-54.0028,-83.1936,,,,
04_S4_S5,04/05/2023,16:59:16.500,-0.0112,0.6621,-0.7480,31.3950,0.3281,-0.2213,-16.6387,-54.0028,-83.1936,,,,
04_S4_S5,04/05/2023,16:59:16.600,-0.0032,0.6277,-0.7356,10.2921,5.0430,-4.7379,-15.7630,-53.4190,-84.6531,,,,
04_S4_S5,04/05/2023,16:59:16.700,-0.0083,0.5986,-0.7927,18.1046,14.5111,-13.7634,-15.4711,-54.5866,-84.3612,,,,
04_S4_S5,04/05/2023,16:59:16.800,-0.0159,0.5649,-0.8274,36.4304,2.0447,-5.8212,-13.5737,-53.5650,-87.1343,,,,
04_S4_S5,04/05/2023,16:59:16.900,-0.0271,0.5269,-0.8347,21.2860,-5.7831,4.9591,-13.5737,-53.5650,-87.1343,,,,
04_S4_S5,04/05/2023,16:59:17.000,-0.0237,0.5056,-0.8462,8.4457,-4.3716,9.5978,-12.1141,-54.4407,-87.1343,Inactive,0,21.16,
04_S4_S5,04/05/2023,16:59:17.100,-0.0247,0.4717,-0.8674,20.1263,-4.1885,5.2872,-9.9248,-52.8352,-87.2803,,,,
04_S4_S5,04/05/2023,16:59:17.200,-0.0330,0.4468,-0.8647,19.7906,-5.8517,-1.3123,-8.4653,-52.2514,-88.7398,,,,
04_S4_S5,04/05/2023,16:59:17.300,-0.0491,0.4365,-0.8923,10.3760,2.3270,1.0605,-8.4653,-52.5433,-87.8641,,,,
04_S4_S5,04/05/2023,16:59:17.400,-0.0444,0.4119,-0.9001,15.3732,0.5951,5.0049,-8.4653,-52.5433,-87.8641,,,,
04_S4_S5,04/05/2023,16:59:17.500,-0.0525,0.3733,-0.9150,9.8572,-2.6016,2.1896,-8.0274,-53.5650,-89.4696,,,,
04_S4_S5,04/05/2023,16:59:17.600,-0.0608,0.3728,-0.9033,12.0544,-4.4632,-2.5711,-6.2760,-52.3973,-89.7615,,,,
04_S4_S5,04/05/2023,16:59:17.700,-0.0710,0.3210,-0.9065,21.6980,-7.2556,1.1368,-5.5462,-51.6676,-89.3236,,,,
04_S4_S5,04/05/2023,16:59:17.800,-0.0818,0.2781,-0.9360,25.4822,-4.5624,0.9842,-3.6488,-50.6459,-90.0534,,,,
04_S4_S5,04/05/2023,16:59:17.900,-0.0806,0.2241,-0.9573,27.2827,6.5994,-6.1569,-3.6488,-50.6459,-90.0534,,,,
04_S4_S5,04/05/2023,16:59:18.000,-0.0745,0.1433,-0.9729,29.4647,5.2032,1.4420,1.7514,-51.6676,-89.9074,Inactive,0,21.18,
04_S4_S5,04/05/2023,16:59:18.100,-0.0461,0.0732,-0.9722,35.8810,12.5046,5.8670,3.6488,-52.1054,-89.4696,,,,
04_S4_S5,04/05/2023,16:59:18.200,-0.0247,0.0066,-0.9673,32.6843,9.7733,4.8218,5.4003,-52.3973,-89.7615,,,,
04_S4_S5,04/05/2023,16:59:18.300,-0.0195,-0.0493,-0.9800,36.4304,8.5907,4.1809,5.4003,-52.3973,-89.7615,,,,
04_S4_S5,04/05/2023,16:59:18.400,-0.0117,-0.1162,-0.9714,35.6903,7.8888,4.5013,8.3194,-53.5650,-88.5938,,,,
04_S4_S5,04/05/2023,16:59:18.500,0.0039,-0.1953,-0.9553,47.2565,10.1776,3.4943,12.5520,-53.1271,-86.6964,,,,
04_S4_S5,04/05/2023,16:59:18.600,0.0085,-0.2729,-0.9414,43.8080,6.9122,2.1591,14.3035,-54.0028,-85.5288,,,,
04_S4_S5,04/05/2023,16:59:18.700,0.0212,-0.3484,-0.9053,39.3906,6.3705,-0.4196,16.2008,-53.2731,-83.3395,,,,
04_S4_S5,04/05/2023,16:59:18.800,0.0156,-0.4038,-0.8955,40.7791,2.2659,-1.9455,16.2008,-53.2731,-83.3395,,,,
04_S4_S5,04/05/2023,16:59:18.900,0.0195,-0.4695,-0.8564,41.4581,2.5787,-0.1373,18.6821,-54.0028,-82.3178,,,,
04_S4_S5,04/05/2023,16:59:19.000,0.0295,-0.5317,-0.8147,42.1295,2.6932,-2.3422,21.6011,-53.1271,-79.3988,Inactive,0,21.2,
04_S4_S5,04/05/2023,16:59:19.100,0.0166,-0.6011,-0.7803,29.3274,1.1597,0.7324,22.7688,-54.5866,-79.3988,,,,
04_S4_S5,04/05/2023,16:59:19.200,0.0176,-0.6284,-0.7458,26.6418,2.3956,0.1984,24.5202,-54.0028,-77.9392,,,,
04_S4_S5,04/05/2023,16:59:19.300,0.0437,-0.6465,-0.7068,29.3427,5.2872,-1.8768,24.5202,-54.0028,-77.9392,,,,
04_S4_S5,04/05/2023,16:59:19.400,0.0271,-0.6938,-0.6851,25.7950,3.2806,1.7548,25.5419,-53.8569,-74.5823,,,,
04_S4_S5,04/05/2023,16:59:19.500,0.0430,-0.6968,-0.6479,15.7700,9.0561,9.9106,26.7095,-55.6083,-73.4147,,,,
04_S4_S5,04/05/2023,16:59:19.600,0.0151,-0.7424,-0.6548,11.0703,4.1428,9.4376,27.1474,-54.0028,-74.1444,,,,
04_S4_S5,04/05/2023,16:59:19.700,0.0278,-0.7756,-0.5974,27.2522,-0.9842,-9.6283,28.3150,-55.1705,-71.2254,,,,
04_S4_S5,04/05/2023,16:59:19.800,0.0315,-0.7888,-0.5491,30.5328,5.1346,-0.5112,28.3150,-55.1705,-71.2254,,,,
04_S4_S5,04/05/2023,16:59:19.900,0.0300,-0.8132,-0.5449,19.7296,8.5678,4.1275,29.1907,-55.7543,-69.1820,,,,
04_S4_S5,04/05/2023,16:59:20.000,0.0337,-0.8147,-0.5110,23.7579,1.8616,2.3804,29.4826,-54.2947,-67.7225,Inactive,0,21.2,
04_S4_S5,04/05/2023,16:59:20.100,0.0283,-0.8604,-0.4324,18.3182,-4.0359,2.4490,30.0664,-54.2947,-66.5548,,,,
04_S4_S5,04/05/2023,16:59:20.200,0.0212,-0.8831,-0.4236,10.1242,-0.1373,0.5875,29.4826,-53.7109,-65.9710,,,,
04_S4_S5,04/05/2023,16:59:20.300,0.0186,-0.8408,-0.4292,11.0550,6.7978,4.0054,29.4826,-53.7109,-65.9710,,,,
04_S4_S5,04/05/2023,16:59:20.400,0.0354,-0.9026,-0.4077,7.6523,2.7161,-5.3024,30.9422,-53.7109,-64.5115,,,,
04_S4_S5,04/05/2023,16:59:20.500,0.0334,-0.8953,-0.3936,14.1220,5.5771,0.6104,30.6503,-54.5866,-63.9277,,,,
04_S4_S5,04/05/2023,16:59:20.600,0.0398,-0.9153,-0.3972,7.2784,5.3864,1.3885,30.5043,-54.7326,-64.0736,,,,
04_S4_S5,04/05/2023,16:59:20.700,0.0239,-0.9043,-0.3809,2.2812,-2.2202,4.8676,30.5043,-54.7326,-64.0736,,,,
04_S4_S5,04/05/2023,16:59:20.800,0.0142,-0.9021,-0.3721,4.1656,-0.1678,6.0043,31.0881,-54.4407,-61.7384,,,,
04_S4_S5,04/05/2023,16:59:20.900,0.0088,-0.9214,-0.3411,9.5291,-3.5553,3.7079,31.5260,-53.4190,-62.1762,,,,
04_S4_S5,04/05/2023,16:59:21.000,0.0105,-0.9380,-0.3149,13.2446,-1.5869,-3.0289,31.5260,-53.4190,-62.4681,Inactive,0,21.23,
04_S4_S5,04/05/2023,16:59:21.100,0.0242,-0.9233,-0.3000,23.0942,2.4872,-2.1896,31.8179,-53.1271,-59.8410,,,,
04_S4_S5,04/05/2023,16:59:21.200,0.0168,-0.9460,-0.2644,15.7318,11.8942,3.9673,31.8179,-53.1271,-59.8410,,,,
04_S4_S5,04/05/2023,16:59:21.300,0.0217,-0.9595,-0.2266,7.7362,7.4158,2.4948,31.5260,-54.2947,-58.3814,,,,
04_S4_S5,04/05/2023,16:59:21.400,0.0215,-0.9580,-0.2104,11.4212,0.8392,-1.5106,31.6719,-54.4407,-57.6517,,,,
04_S4_S5,04/05/2023,16:59:21.500,0.0063,-0.9746,-0.1951,15.6860,-3.2654,-2.0676,31.8179,-53.7109,-56.3381,,,,
04_S4_S5,04/05/2023,16:59:21.600,0.0210,-0.9783,-0.1406,26.6724,0.0076,-3.3951,30.3583,-54.2947,-55.4624,,,,
04_S4_S5,04/05/2023,16:59:21.700,0.0295,-0.9805,-0.0796,34.8129,4.6463,0.2365,30.3583,-54.2947,-55.4624,,,,
04_S4_S5,04/05/2023,16:59:21.800,0.0403,-0.9771,-0.0208,38.9328,3.5629,-2.4109,33.1315,-54.4407,-52.3973,,,,
04_S4_S5,04/05/2023,16:59:21.900,0.0349,-0.9907,0.0496,28.0228,1.9226,-0.1068,31.0881,-54.7326,-51.8135,,,,
04_S4_S5,04/05/2023,16:59:22.000,0.0161,-0.9653,0.0862,40.3290,5.8289,5.7678,29.6286,-53.2731,-48.3106,Inactive,0,21.28,
04_S4_S5,04/05/2023,16:59:22.100,0.0278,-0.9690,0.1528,25.4440,4.1885,1.2207,29.6286,-55.3164,-44.8078,,,,
04_S4_S5,04/05/2023,16:59:22.200,0.0256,-0.9900,0.1938,14.8087,4.2496,-3.2425,29.6286,-55.3164,-44.8078,,,,
04_S4_S5,04/05/2023,16:59:22.300,0.0364,-0.9910,0.2217,14.4196,-0.7629,-1.7395,29.7745,-54.0028,-44.0780,,,,
04_S4_S5,04/05/2023,16:59:22.400,0.0303,-0.9583,0.2588,26.4587,0.1373,-1.3046,27.2933,-54.7326,-43.3482,,,,
04_S4_S5,04/05/2023,16:59:22.500,0.0364,-0.9636,0.2974,18.3716,0.3128,-0.6332,28.1690,-55.6083,-41.3049,,,,
04_S4_S5,04/05/2023,16:59:22.600,0.0425,-0.9456,0.3503,32.7911,2.1210,-0.4883,26.5636,-54.5866,-39.1156,,,,
04_S4_S5,04/05/2023,16:59:22.700,0.0400,-0.9150,0.4260,47.2336,3.4637,-5.5008,26.5636,-54.5866,-39.1156,,,,
04_S4_S5,04/05/2023,16:59:22.800,0.0791,-0.8655,0.4844,36.6592,-6.5231,-1.1597,24.8121,-55.7543,-36.4884,,,,
04_S4_S5,04/05/2023,16:59:22.900,0.0469,-0.8823,0.5212,15.1672,-2.6855,1.6251,23.3526,-54.2947,-35.9046,,,,
04_S4_S5,04/05/2023,16:59:23.000,0.0662,-0.8501,0.5737,25.7339,-1.1292,-1.3809,22.6228,-56.1921,-34.2991,Inactive,0,21.27,
04_S4_S5,04/05/2023,16:59:23.100,0.0740,-0.8074,0.6047,28.4424,7.3318,-5.0125,20.2876,-55.6083,-33.1315,,,,
04_S4_S5,04/05/2023,16:59:23.200,0.0679,-0.7910,0.6382,24.7879,3.5095,2.9602,20.2876,-55.6083,-33.1315,,,,
04_S4_S5,04/05/2023,16:59:23.300,0.0591,-0.7712,0.6631,27.7405,-0.7935,5.8823,19.5578,-55.1705,-32.4017,,,,
04_S4_S5,04/05/2023,16:59:23.400,0.0610,-0.7224,0.7202,27.2217,3.5858,4.0131,17.9523,-54.1488,-31.3800,,,,
04_S4_S5,04/05/2023,16:59:23.500,0.0330,-0.7271,0.7388,13.8855,10.6583,1.8158,16.9306,-54.5866,-29.7745,,,,
04_S4_S5,04/05/2023,16:59:23.600,0.0381,-0.6914,0.7612,18.4860,1.4343,-0.6638,16.7847,-54.7326,-29.9205,,,,
04_S4_S5,04/05/2023,16:59:23.700,0.0518,-0.6492,0.7861,23.1018,-5.5771,-1.6861,16.7847,-54.7326,-29.9205,,,,
04_S4_S5,04/05/2023,16:59:23.800,0.0684,-0.6470,0.7888,17.1814,-4.5776,3.4027,15.4711,-54.8786,-29.7745,,,,
04_S4_S5,04/05/2023,16:59:23.900,0.0645,-0.6240,0.8242,18.2037,-3.4332,5.6915,15.0332,-55.6083,-28.1690,,,,
04_S4_S5,04/05/2023,16:59:24.000,0.0378,-0.5369,0.8486,47.1115,9.7504,7.9422,10.2168,-55.4624,-27.4393,Inactive,0,21.27,
04_S4_S5,04/05/2023,16:59:24.100,0.0422,-0.5005,0.9067,11.8332,1.5869,3.7460,10.5087,-53.7109,-25.6878,,,,
04_S4_S5,04/05/2023,16:59:24.200,0.0486,-0.5012,0.9268,14.6103,8.7128,-4.7379,10.5087,-53.7109,-25.6878,,,,
04_S4_S5,04/05/2023,16:59:24.300,0.0300,-0.4653,0.9197,23.6359,9.5596,-4.2038,8.7572,-54.2947,-25.3959,,,,
04_S4_S5,04/05/2023,16:59:24.400,0.0227,-0.4390,0.9236,14.0991,6.2714,-6.4926,8.3194,-53.5650,-25.2500,,,,
04_S4_S5,04/05/2023,16:59:24.500,0.0413,-0.4158,0.9683,17.3492,3.6926,-11.9934,6.2760,-54.4407,-24.3743,,,,
04_S4_S5,04/05/2023,16:59:24.600,0.0432,-0.3447,0.9863,47.9126,6.4011,-24.0097,6.2760,-54.4407,-24.3743,,,,
04_S4_S5,04/05/2023,16:59:24.700,0.0483,-0.2678,1.0112,39.5355,5.5008,-4.5395,2.0434,-54.0028,-23.9364,,,,
04_S4_S5,04/05/2023,16:59:24.800,0.0210,-0.2180,1.0273,17.4637,7.7438,10.2081,0.2919,-53.4190,-24.5202,,,,
04_S4_S5,04/05/2023,16:59:24.900,0.0110,-0.2126,1.0149,16.8381,7.4081,13.4811,0.5838,-53.7109,-24.2283,,,,
04_S4_S5,04/05/2023,16:59:25.000,-0.0017,-0.1704,1.0461,25.7111,1.1749,6.3248,-2.3353,-53.4190,-23.6445,Inactive,0,21.33,
04_S4_S5,04/05/2023,16:59:25.100,0.0364,-0.0479,1.0256,62.7747,-6.1264,5.9280,-2.3353,-53.4190,-23.6445,,,,
04_S4_S5,04/05/2023,16:59:25.200,0.0396,0.0715,1.0293,72.2351,0.5569,3.0212,-7.1517,-54.1488,-24.6662,,,,
04_S4_S5,04/05/2023,16:59:25.300,0.0293,0.1350,1.0259,36.6821,5.1880,2.1057,-10.6546,-53.8569,-24.6662,,,,
04_S4_S5,04/05/2023,16:59:25.400,0.0186,0.1931,1.0337,40.0391,-0.3357,-0.0076,-13.2818,-53.8569,-26.1257,,,,
04_S4_S5,04/05/2023,16:59:25.500,0.0476,0.2847,0.9968,45.1279,-3.6697,-0.6256,-15.9089,-54.4407,-29.6286,,,,
04_S4_S5,04/05/2023,16:59:25.600,0.0522,0.3704,0.9624,46.7300,-0.9155,1.1673,-15.9089,-54.4407,-29.6286,,,,
04_S4_S5,04/05/2023,16:59:25.700,0.0349,0.4402,0.9524,44.5709,1.4114,1.7548,-18.6821,-54.2947,-31.5260,,,,
04_S4_S5,04/05/2023,16:59:25.800,0.0337,0.5110,0.9097,53.4744,3.9444,5.0964,-21.3092,-55.4624,-32.4017,,,,
04_S4_S5,04/05/2023,16:59:25.900,0.0476,0.6182,0.8237,65.1779,0.4730,2.1210,-23.0607,-54.2947,-36.7803,,,,
04_S4_S5,04/05/2023,16:59:26.000,0.0547,0.6731,0.7803,36.3693,0.1907,0.4578,-25.5419,-54.4407,-37.8020,Inactive,0,21.33,
04_S4_S5,04/05/2023,16:59:26.100,0.0452,0.7310,0.7346,47.6837,3.9825,3.1052,-25.5419,-54.4407,-37.8020,,,,
04_S4_S5,04/05/2023,16:59:26.200,0.0391,0.8020,0.6621,46.5851,1.6937,-1.4343,-27.8771,-55.9002,-40.7211,,,,
04_S4_S5,04/05/2023,16:59:26.300,0.0415,0.8289,0.6145,29.8615,1.5411,-1.5717,-29.3367,-55.3164,-43.6401,,,,
04_S4_S5,04/05/2023,16:59:26.400,0.0432,0.8403,0.5852,18.9743,-0.2060,-0.5875,-30.2124,-55.3164,-45.0997,,,,
04_S4_S5,04/05/2023,16:59:26.500,0.0322,0.8896,0.5317,37.8952,0.8850,-1.8387,-29.9205,-54.4407,-47.7268,,,,
04_S4_S5,04/05/2023,16:59:26.600,0.0408,0.8933,0.4995,28.6713,3.3951,-0.1678,-29.9205,-54.4407,-47.7268,,,,
04_S4_S5,04/05/2023,16:59:26.700,0.0454,0.9268,0.4272,32.5623,2.5787,4.1580,-30.6503,-55.7543,-49.0404,,,,
04_S4_S5,04/05/2023,16:59:26.800,0.0439,0.9458,0.3945,25.7111,1.4191,-3.4027,-31.0881,-53.8569,-51.8135,,,,
04_S4_S5,04/05/2023,16:59:26.900,0.0349,0.9504,0.3645,10.7422,7.2098,0.8545,-30.6503,-54.8786,-52.8352,,,,
04_S4_S5,04/05/2023,16:59:27.000,0.0317,0.9456,0.3457,9.4376,-0.7935,2.4872,-30.7962,-56.1921,-54.1488,Inactive,0,21.36,
04_S4_S5,04/05/2023,16:59:27.100,0.0598,0.9673,0.3435,16.0980,-5.5847,3.3340,-30.7962,-56.1921,-54.1488,,,,
04_S4_S5,04/05/2023,16:59:27.200,0.0598,1.0117,0.2715,17.1051,1.4496,-3.0212,-30.3583,-54.2947,-54.0028,,,,
04_S4_S5,04/05/2023,16:59:27.300,0.0337,0.9978,0.2756,6.6605,2.8076,-4.8599,-31.9638,-54.1488,-55.3164,,,,
04_S4_S5,04/05/2023,16:59:27.400,0.0188,0.9727,0.2751,3.1815,1.1749,-3.7842,-31.3800,-55.0245,-55.6083,,,,
04_S4_S5,04/05/2023,16:59:27.500,0.0315,0.9739,0.2742,1.1673,0.9232,0.0763,-30.3583,-54.2947,-56.0462,,,,
04_S4_S5,04/05/2023,16:59:27.600,0.0203,0.9836,0.2126,-1.3275,3.5095,4.5319,-30.3583,-54.2947,-56.0462,,,,
04_S4_S5,04/05/2023,16:59:27.700,0.0239,0.9719,0.2520,-2.5024,-6.1188,4.3182,-32.4017,-54.8786,-55.1705,,,,
04_S4_S5,04/05/2023,16:59:27.800,0.0750,1.0122,0.2903,-3.4332,-11.3983,6.1569,-32.2557,-54.1488,-56.1921,,,,
04_S4_S5,04/05/2023,16:59:27.900,0.0605,1.0022,0.2534,9.9182,0.4044,-1.3351,-31.0881,-55.0245,-56.7760,,,,
04_S4_S5,04/05/2023,16:59:28.000,0.0515,0.9807,0.2510,5.8975,10.9100,-1.7166,-31.0881,-55.0245,-56.7760,Inactive,0,21.38,
04_S4_S5,04/05/2023,16:59:28.100,0.0430,0.9851,0.2207,16.9525,12.3672,-1.6708,-30.9422,-53.7109,-57.7976,,,,
04_S4_S5,04/05/2023,16:59:28.200,0.0361,1.0129,0.1621,33.1268,8.5754,1.5259,-31.6719,-54.4407,-58.8193,,,,
04_S4_S5,04/05/2023,16:59:28.300,0.0605,1.0115,0.0771,53.8483,17.1814,7.4768,-30.5043,-54.4407,-61.7384,,,,
04_S4_S5,04/05/2023,16:59:28.400,0.0479,1.0178,0.0359,22.3999,5.3253,1.6937,-29.7745,-55.1705,-63.9277,,,,
04_S4_S5,04/05/2023,16:59:28.500,0.0720,0.9998,-0.0403,36.6440,0.5417,5.1727,-29.7745,-55.1705,-63.9277,,,,
04_S4_S5,04/05/2023,16:59:28.600,0.0686,0.9941,-0.1184,37.2009,-3.5477,0.2670,-28.4610,-55.6083,-66.9927,,,,
04_S4_S5,04/05/2023,16:59:28.700,0.0405,1.0046,-0.1453,24.1089,-3.4103,-4.9591,-27.7312,-56.0462,-69.1820,,,,
04_S4_S5,04/05/2023,16:59:28.800,0.0476,0.9800,-0.2363,32.6920,1.5259,-2.8381,-27.5852,-54.7326,-71.0794,,,,
04_S4_S5,04/05/2023,16:59:28.900,0.0205,0.9834,-0.2825,36.6669,3.0823,-3.0441,-26.7095,-55.0245,-72.5389,,,,
04_S4_S5,04/05/2023,16:59:29.000,0.0359,0.9434,-0.3467,40.1535,3.7384,2.3575,-26.7095,-55.0245,-72.5389,Inactive,0,21.4,
04_S4_S5,04/05/2023,16:59:29.100,0.0391,0.9075,-0.4116,36.4532,2.2888,1.0757,-25.3959,-54.8786,-74.7282,,,,
04_S4_S5,04/05/2023,16:59:29.200,0.0356,0.8826,-0.4790,42.6407,0.6638,-2.3956,-24.2283,-54.5866,-77.0635,,,,
04_S4_S5,04/05/2023,16:59:29.300,0.0317,0.8352,-0.5374,42.1677,1.6327,-2.9831,-21.4552,-54.1488,-79.2528,,,,
04_S4_S5,04/05/2023,16:59:29.400,0.0193,0.7983,-0.6003,35.3470,1.2741,-4.5166,-19.9956,-54.7326,-81.0042,,,,
04_S4_S5,04/05/2023,16:59:29.500,0.0063,0.7705,-0.6309,26.8936,-5.5084,-1.2817,-19.9956,-54.7326,-81.0042,,,,
04_S4_S5,04/05/2023,16:59:29.600,0.0037,0.7307,-0.6870,12.2070,-3.6697,5.0964,-18.9740,-53.7109,-83.1936,,,,
04_S4_S5,04/05/2023,16:59:29.700,0.0081,0.7092,-0.7207,36.6135,-0.9918,-0.1068,-17.0766,-54.7326,-83.3395,,,,
04_S4_S5,04/05/2023,16:59:29.800,-0.0068,0.6729,-0.6951,22.8119,0.4272,-3.1128,-16.0549,-53.4190,-84.9450,,,,
04_S4_S5,04/05/2023,16:59:29.900,0.0127,0.6582,-0.7739,18.6539,14.8315,-2.8763,-15.0332,-53.8569,-85.6748,,,,
04_S4_S5,04/05/2023,16:59:30.000,0.0103,0.6272,-0.7603,8.5678,3.0670,-1.0071,-15.0332,-53.8569,-85.6748,Inactive,0,21.37,
04_S4_S5,04/05/2023,16:59:30.100,0.0146,0.6038,-0.7827,23.7579,5.9814,1.1749,-13.4277,-53.7109,-85.8207,,,,
04_S4_S5,04/05/2023,16:59:30.200,0.0190,0.5667,-0.8140,22.0032,-2.3041,2.3804,-12.2601,-54.5866,-86.4045,,,,
04_S4_S5,04/05/2023,16:59:30.300,0.0056,0.5386,-0.8250,19.9966,-5.0812,4.7989,-10.8006,-53.1271,-87.5722,,,,
04_S4_S5,04/05/2023,16:59:30.400,0.0020,0.5122,-0.8420,17.7612,-4.7913,2.3499,-9.6329,-54.2947,-86.9883,,,,
04_S4_S5,04/05/2023,16:59:30.500,-0.0061,0.4719,-0.8623,24.5132,-1.5182,1.6708,-9.6329,-54.2947,-86.9883,,,,
04_S4_S5,04/05/2023,16:59:30.600,-0.0095,0.4382,-0.8845,29.2053,-4.3716,3.5019,-7.7355,-52.1054,-87.1343,,,,
04_S4_S5,04/05/2023,16:59:30.700,-0.0266,0.3936,-0.9021,28.1754,-6.0120,-5.1041,-5.2543,-52.8352,-89.3236,,,,
04_S4_S5,04/05/2023,16:59:30.800,-0.0413,0.3440,-0.9255,15.6250,-3.6697,-2.5787,-4.5246,-52.3973,-90.6372,,,,
04_S4_S5,04/05/2023,16:59:30.900,-0.0486,0.3425,-0.9338,5.1117,-0.2670,1.4496,-4.2327,-52.6892,-88.8857,,,,
04_S4_S5,04/05/2023,16:59:31.000,-0.0449,0.3281,-0.9309,16.0980,2.5253,-4.6921,-4.2327,-52.6892,-88.8857,Inactive,0,21.41,
04_S4_S5,04/05/2023,16:59:31.100,-0.0376,0.2627,-0.9375,30.1208,2.6093,-0.1755,-2.3353,-51.6676,-90.1993,,,,
04_S4_S5,04/05/2023,16:59:31.200,-0.0569,0.1941,-0.9807,43.7012,1.2360,-2.3956,0.5838,-51.9595,-90.1993,,,,
04_S4_S5,04/05/2023,16:59:31.300,-0.0393,0.1106,-0.9714,42.5644,7.7438,-5.1041,2.9191,-51.6676,-88.7398,,,,
04_S4_S5,04/05/2023,16:59:31.400,-0.0273,0.0388,-0.9685,42.5644,5.3177,-3.6392,6.7139,-51.9595,-89.0317,,,,
04_S4_S5,04/05/2023,16:59:31.500,-0.0356,-0.0298,-0.9810,41.2750,2.1973,-4.6692,6.7139,-51.9595,-89.0317,,,,
04_S4_S5,04/05/2023,16:59:31.600,-0.0293,-0.1221,-0.9763,41.5497,4.3030,-5.4398,8.6113,-52.9812,-88.0100,,,,
04_S4_S5,04/05/2023,16:59:31.700,-0.0127,-0.1934,-0.9531,50.9949,6.2332,-9.9716,12.2601,-52.8352,-86.6964,,,,
04_S4_S5,04/05/2023,16:59:31.800,-0.0054,-0.2737,-0.9316,39.4592,7.4234,-4.7607,15.1792,-53.1271,-86.1126,,,,
04_S4_S5,04/05/2023,16:59:31.900,-0.0054,-0.3411,-0.9233,34.8129,2.7924,-3.5553,15.1792,-53.1271,-86.1126,,,,
04_S4_S5,04/05/2023,16:59:32.000,0.0034,-0.3784,-0.9062,28.4805,3.7384,-3.9368,16.6387,-54.0028,-83.4855,Inactive,0,21.48,
04_S4_S5,04/05/2023,16:59:32.100,0.0081,-0.4128,-0.8796,18.6386,-0.6332,-0.7629,16.9306,-54.8786,-83.4855,,,,
04_S4_S5,04/05/2023,16:59:32.200,-0.0125,-0.4585,-0.8567,30.6931,-5.5008,-2.7847,19.7037,-54.1488,-82.1719,,,,
04_S4_S5,04/05/2023,16:59:32.300,-0.0078,-0.4854,-0.8340,17.3416,5.6381,4.6158,19.9956,-53.8569,-81.5881,,,,
04_S4_S5,04/05/2023,16:59:32.400,0.0007,-0.4971,-0.8298,24.7803,16.8610,6.1035,19.9956,-53.8569,-81.5881,,,,
04_S4_S5,04/05/2023,16:59:32.500,0.0156,-0.5562,-0.8098,7.2098,15.6250,5.4092,22.1849,-54.0028,-79.3988,,,,
04_S4_S5,04/05/2023,16:59:32.600,0.0327,-0.5784,-0.8110,11.8332,8.1024,7.9346,23.2066,-54.4407,-79.2528,,,,
04_S4_S5,04/05/2023,16:59:32.700,0.0200,-0.6030,-0.7778,17.4637,-1.8005,6.7520,23.9364,-52.5433,-77.6473,,,,
04_S4_S5,04/05/2023,16:59:32.800,-0.0020,-0.6338,-0.7427,26.0696,-4.0359,8.6594,25.3959,-52.5433,-76.1878,,,,
04_S4_S5,04/05/2023,16:59:32.900,-0.0276,-0.6228,-0.7148,21.0495,-2.6932,5.6610,25.3959,-52.5433,-76.1878,,,,
04_S4_S5,04/05/2023,16:59:33.000,0.0005,-0.7007,-0.7073,28.4958,-0.6638,-0.4501,25.6878,-52.8352,-74.4363,Inactive,0,21.46,
04_S4_S5,04/05/2023,16:59:33.100,-0.0229,-0.7322,-0.6221,26.7258,-4.5090,-2.8915,26.8555,-51.9595,-72.9768,,,,
04_S4_S5,04/05/2023,16:59:33.200,-0.0115,-0.7485,-0.6292,24.8795,7.2174,-1.2589,27.0014,-52.6892,-72.8308,,,,
04_S4_S5,04/05/2023,16:59:33.300,-0.0149,-0.7935,-0.5874,23.9792,12.8937,11.5433,28.1690,-52.3973,-69.6199,,,,
04_S4_S5,04/05/2023,16:59:33.400,-0.0168,-0.8240,-0.5442,29.4418,8.7967,2.0218,28.1690,-52.3973,-69.6199,,,,
04_S4_S5,04/05/2023,16:59:33.500,0.0264,-0.8149,-0.4985,28.7476,3.6392,-5.7297,30.2124,-52.6892,-67.5765,,,,
04_S4_S5,04/05/2023,16:59:33.600,0.0198,-0.8555,-0.4414,27.9388,0.0839,1.2894,31.0881,-54.1488,-67.2846,,,,
04_S4_S5,04/05/2023,16:59:33.700,-0.0166,-0.8970,-0.4211,22.4152,1.8997,3.9520,31.3800,-53.2731,-64.0736,,,,
04_S4_S5,04/05/2023,16:59:33.800,-0.0229,-0.8967,-0.4048,27.3666,1.7471,1.6174,31.5260,-52.8352,-62.4681,,,,
04_S4_S5,04/05/2023,16:59:33.900,-0.0234,-0.9417,-0.2869,42.7551,4.9744,12.0621,31.5260,-52.8352,-62.4681,,,,
04_S4_S5,04/05/2023,16:59:34.000,-0.0227,-0.9465,-0.2422,24.4675,1.1597,6.3705,32.9855,-52.5433,-58.3814,Inactive,0,21.45,
04_S4_S5,04/05/2023,16:59:34.100,-0.0325,-0.9470,-0.2280,11.9095,4.8828,7.2250,33.2774,-53.1271,-57.7976,,,,
04_S4_S5,04/05/2023,16:59:34.200,-0.0444,-0.9712,-0.2083,10.7193,2.2125,0.2441,32.8396,-52.1054,-56.1921,,,,
04_S4_S5,04/05/2023,16:59:34.300,-0.0532,-0.9954,-0.1594,24.0631,0.3815,-0.2441,32.1098,-52.2514,-55.7543,,,,
04_S4_S5,04/05/2023,16:59:34.400,-0.0452,-0.9741,-0.1230,28.5797,5.8899,2.2278,32.1098,-52.2514,-55.7543,,,,
04_S4_S5,04/05/2023,16:59:34.500,-0.0408,-0.9709,-0.0906,18.4860,-2.2507,-0.9918,31.6719,-52.1054,-51.8135,,,,
04_S4_S5,04/05/2023,16:59:34.600,-0.0278,-0.9875,-0.0452,21.9269,-2.6855,-2.2430,34.1531,-52.2514,-51.3757,,,,
04_S4_S5,04/05/2023,16:59:34.700,-0.0315,-1.0083,-0.0198,20.5460,11.4136,1.8692,32.2557,-51.8135,-49.7702,,,,
04_S4_S5,04/05/2023,16:59:34.800,-0.0608,-0.9614,0.0142,16.9144,12.8174,4.1580,32.4017,-50.7919,-47.8728,,,,
04_S4_S5,04/05/2023,16:59:34.900,-0.0415,-1.0015,0.0471,12.5504,7.8964,0.8469,32.4017,-50.7919,-47.8728,,,,
04_S4_S5,04/05/2023,16:59:35.000,-0.0457,-0.9917,0.0723,22.2855,11.1923,1.7471,31.9638,-51.8135,-46.2673,Inactive,0,21.49,
04_S4_S5,04/05/2023,16:59:35.100,-0.0574,-0.9788,0.1077,20.9885,8.9417,2.8305,31.3800,-50.3540,-44.2239,,,,
04_S4_S5,04/05/2023,16:59:35.200,-0.0520,-0.9714,0.1885,22.4991,8.5983,1.9608,29.4826,-51.3757,-43.7861,,,,
04_S4_S5,04/05/2023,16:59:35.300,-0.0608,-0.9841,0.2004,20.6604,10.0021,0.4425,30.7962,-50.6459,-41.3049,,,,
04_S4_S5,04/05/2023,16:59:35.400,-0.0662,-0.9641,0.2266,14.4272,2.9907,0.1221,30.7962,-50.6459,-41.3049,,,,
04_S4_S5,04/05/2023,16:59:35.500,-0.0613,-0.9565,0.2629,18.2114,-2.0294,-3.1433,29.0448,-50.3540,-40.7211,,,,
04_S4_S5,04/05/2023,16:59:35.600,-0.0310,-0.9482,0.3333,28.3356,-18.1046,-5.1270,27.7312,-52.2514,-38.8237,,,,
04_S4_S5,04/05/2023,16:59:35.700,-0.0220,-0.9326,0.3501,17.1509,3.1509,-2.6550,27.1474,-51.9595,-36.7803,,,,
04_S4_S5,04/05/2023,16:59:35.800,-0.0352,-0.9336,0.3589,12.1078,8.4381,1.1520,27.1474,-51.9595,-36.7803,,,,
04_S4_S5,04/05/2023,16:59:35.900,-0.0383,-0.9331,0.4089,27.8702,2.5253,1.2665,27.1474,-51.3757,-37.3641,,,,
04_S4_S5,04/05/2023,16:59:36.000,-0.0332,-0.8916,0.4895,47.3480,-3.2959,1.2436,25.5419,-50.3540,-34.0072,Inactive,0,21.52,
04_S4_S5,04/05/2023,16:59:36.100,-0.0229,-0.8430,0.5413,37.2925,-6.7215,4.4327,23.4985,-52.6892,-32.8396,,,,
04_S4_S5,04/05/2023,16:59:36.200,-0.0415,-0.8328,0.5923,26.3672,-0.6027,3.8300,22.6228,-50.9378,-30.7962,,,,
04_S4_S5,04/05/2023,16:59:36.300,-0.0354,-0.7925,0.6404,21.1334,-1.0376,1.7776,22.6228,-50.9378,-30.7962,,,,
04_S4_S5,04/05/2023,16:59:36.400,-0.0308,-0.7839,0.6519,9.7885,3.4790,-3.0212,21.0173,-52.8352,-31.8179,,,,
04_S4_S5,04/05/2023,16:59:36.500,-0.0173,-0.7771,0.6628,9.2010,-0.6866,-4.1275,20.8714,-51.5216,-29.9205,,,,
04_S4_S5,04/05/2023,16:59:36.600,-0.0076,-0.7756,0.6548,5.7449,-0.6409,-2.1820,20.4335,-51.6676,-29.7745,,,,
04_S4_S5,04/05/2023,16:59:36.700,-0.0125,-0.7429,0.6953,26.0010,0.5569,4.5547,18.2442,-51.8135,-29.0448,,,,
04_S4_S5,04/05/2023,16:59:36.800,-0.0247,-0.7112,0.7349,9.3155,0.9537,2.1973,18.2442,-51.8135,-29.0448,,,,
04_S4_S5,04/05/2023,16:59:36.900,0.0083,-0.6865,0.7708,36.1252,-10.9787,-5.9433,18.0982,-52.5433,-29.1907,,,,
04_S4_S5,04/05/2023,16:59:37.000,0.0251,-0.6726,0.7810,13.0157,-11.0626,0.7553,16.0549,-52.2514,-27.4393,Inactive,0,21.53,
04_S4_S5,04/05/2023,16:59:37.100,0.0149,-0.6406,0.7935,8.8730,-3.1738,5.7297,15.9089,-54.4407,-29.0448,,,,
04_S4_S5,04/05/2023,16:59:37.200,0.0259,-0.6553,0.8218,6.2332,-1.0529,5.7297,15.9089,-52.6892,-26.4176,,,,
04_S4_S5,04/05/2023,16:59:37.300,0.0039,-0.6228,0.7959,19.4168,6.4468,7.1259,15.9089,-52.6892,-26.4176,,,,
04_S4_S5,04/05/2023,16:59:37.400,-0.0168,-0.5627,0.8223,30.6015,5.3711,2.3804,12.9899,-53.2731,-28.1690,,,,
04_S4_S5,04/05/2023,16:59:37.500,0.0293,-0.5601,0.9133,12.5122,-4.9591,-3.2501,12.5520,-53.4190,-26.8555,,,,
04_S4_S5,04/05/2023,16:59:37.600,0.0212,-0.5332,0.8909,19.9509,6.3934,0.8850,12.2601,-53.1271,-25.1040,,,,
04_S4_S5,04/05/2023,16:59:37.700,-0.0015,-0.4895,0.9133,21.6904,6.2332,3.1204,10.5087,-53.4190,-24.8121,,,,
04_S4_S5,04/05/2023,16:59:37.800,-0.0122,-0.4578,0.9351,17.9367,7.4310,0.3967,10.5087,-53.4190,-24.8121,,,,
04_S4_S5,04/05/2023,16:59:37.900,-0.0146,-0.4299,0.9368,18.1122,4.5624,-0.0992,7.7355,-51.2297,-23.2066,,,,
04_S4_S5,04/05/2023,16:59:38.000,-0.0085,-0.4045,0.9417,12.4588,-0.8316,2.2736,6.4220,-52.8352,-24.8121,Inactive,0,21.52,
04_S4_S5,04/05/2023,16:59:38.100,-0.0093,-0.3706,0.9824,23.2010,0.3357,-2.2812,5.8381,-53.1271,-23.6445,,,,
04_S4_S5,04/05/2023,16:59:38.200,0.0090,-0.3225,1.0002,33.1039,-6.8283,-2.7924,3.5029,-53.7109,-23.3526,,,,
04_S4_S5,04/05/2023,16:59:38.300,0.0132,-0.2693,1.0039,35.5606,-3.5706,2.6779,3.5029,-53.7109,-23.3526,,,,
04_S4_S5,04/05/2023,16:59:38.400,0.0239,-0.1667,1.0117,47.1802,1.2131,4.6158,-0.7298,-54.7326,-24.0823,,,,
04_S4_S5,04/05/2023,16:59:38.500,0.0317,-0.1270,1.0286,27.9846,-0.1373,4.7150,-2.4812,-53.8569,-23.7904,,,,
04_S4_S5,04/05/2023,16:59:38.600,0.0186,-0.1064,1.0369,14.7095,3.5172,13.9999,-3.0650,-54.4407,-25.2500,,,,
04_S4_S5,04/05/2023,16:59:38.700,0.0112,-0.0513,1.0381,29.7928,4.6921,12.8479,-3.6488,-54.7326,-25.2500,,,,
04_S4_S5,04/05/2023,16:59:38.800,-0.0103,0.0166,1.0527,32.7682,6.1569,9.3536,-3.6488,-54.7326,-25.2500,,,,
04_S4_S5,04/05/2023,16:59:38.900,0.0034,0.0762,1.0352,32.7759,3.1204,7.1945,-6.1301,-53.7109,-25.1040,,,,
04_S4_S5,04/05/2023,16:59:39.000,0.0054,0.1606,1.0242,48.8739,2.4109,5.9738,-9.4870,-53.8569,-25.5419,Inactive,0,21.55,
04_S4_S5,04/05/2023,16:59:39.100,0.0142,0.2258,1.0032,52.6886,2.3422,4.8523,-12.6980,-54.4407,-27.8771,,,,
04_S4_S5,04/05/2023,16:59:39.200,0.0024,0.3135,0.9883,40.7944,3.2654,-0.1526,-15.0332,-54.1488,-27.5852,,,,
04_S4_S5,04/05/2023,16:59:39.300,0.0002,0.3989,0.9705,36.5372,0.8163,0.2670,-15.0332,-54.1488,-27.5852,,,,
04_S4_S5,04/05/2023,16:59:39.400,0.0020,0.4419,0.9563,31.7612,1.1215,0.5951,-16.4928,-54.1488,-29.3367,,,,
04_S4_S5,04/05/2023,16:59:39.500,0.0085,0.4800,0.9321,25.0473,0.7553,3.3646,-18.6821,-53.7109,-31.5260,,,,
04_S4_S5,04/05/2023,16:59:39.600,0.0115,0.4993,0.9138,12.9166,1.4877,3.4332,-19.5578,-54.8786,-31.8179,,,,
04_S4_S5,04/05/2023,16:59:39.700,0.0154,0.5146,0.8955,17.2272,1.6251,5.6992,-19.5578,-54.8786,-31.8179,,,,
04_S4_S5,04/05/2023,16:59:39.800,0.0144,0.5256,0.8792,12.7258,2.1133,3.5629,-20.2876,-54.7326,-32.2557,,,,
04_S4_S5,04/05/2023,16:59:39.900,0.0251,0.5842,0.8767,19.9509,-0.3128,4.4174,-21.1633,-53.8569,-33.1315,,,,
04_S4_S5,04/05/2023,16:59:40.000,0.0283,0.6069,0.8525,14.7247,2.0065,-0.8316,-21.7471,-54.1488,-34.5910,Inactive,0,21.56,
04_S4_S5,04/05/2023,16:59:40.100,0.0283,0.6082,0.8435,8.8425,-0.2670,0.3738,-21.7471,-54.1488,-35.7586,,,,
04_S4_S5,04/05/2023,16:59:40.200,0.0342,0.6616,0.8044,31.4560,-9.8038,-5.1041,-21.7471,-54.1488,-35.7586,,,,
04_S4_S5,04/05/2023,16:59:40.300,0.0229,0.6909,0.7488,36.8423,-1.6785,-8.2016,-22.6228,-55.0245,-37.2182,,,,
04_S4_S5,04/05/2023,16:59:40.400,0.0261,0.7510,0.7092,43.2358,5.3940,-3.3569,-26.4176,-54.4407,-38.6777,,,,
04_S4_S5,04/05/2023,16:59:40.500,0.0291,0.7776,0.6851,13.0997,2.8992,4.0359,-27.2933,-55.0245,-41.0130,,,,
04_S4_S5,04/05/2023,16:59:40.600,0.0251,0.7737,0.6753,13.3743,0.9537,3.9139,-27.2933,-55.6083,-41.8887,,,,
04_S4_S5,04/05/2023,16:59:40.700,0.0156,0.8240,0.6123,18.6234,15.8768,-1.1520,-27.2933,-55.6083,-41.8887,,,,
04_S4_S5,04/05/2023,16:59:40.800,-0.0032,0.8423,0.6394,3.7384,4.3793,-5.5084,-27.7312,-54.5866,-42.9104,,,,
04_S4_S5,04/05/2023,16:59:40.900,-0.0098,0.8513,0.6226,16.3879,-0.9232,5.4474,-28.1690,-53.8569,-43.6401,,,,
04_S4_S5,04/05/2023,16:59:41.000,0.0422,0.8489,0.5576,21.7285,-11.9400,9.2010,-26.7095,-54.7326,-44.2239,Inactive,0,21.59,
04_S4_S5,04/05/2023,16:59:41.100,0.0320,0.8806,0.5405,22.6135,-4.1656,1.4954,-28.4610,-55.0245,-46.5592,,,,
04_S4_S5,04/05/2023,16:59:41.200,0.0339,0.9143,0.4731,40.5045,2.1210,-9.9869,-28.4610,-55.0245,-46.5592,,,,
04_S4_S5,04/05/2023,16:59:41.300,0.0212,0.9233,0.4600,12.8555,-4.9057,-2.4719,-29.6286,-55.3164,-50.9378,,,,
04_S4_S5,04/05/2023,16:59:41.400,0.0273,0.9385,0.4299,10.9100,-2.8687,0.1450,-29.3367,-53.8569,-48.8945,,,,
04_S4_S5,04/05/2023,16:59:41.500,0.0176,0.9460,0.4194,10.2081,1.6327,-0.3052,-31.0881,-54.1488,-51.2297,,,,
04_S4_S5,04/05/2023,16:59:41.600,0.0342,0.9490,0.3625,23.8190,10.2234,5.7297,-30.7962,-55.6083,-51.8135,,,,
04_S4_S5,04/05/2023,16:59:41.700,0.0320,0.9666,0.3225,34.5688,8.5068,-1.4725,-30.7962,-55.6083,-51.8135,,,,
04_S4_S5,04/05/2023,16:59:41.800,0.0115,1.0105,0.2029,51.8799,1.8387,-12.5351,-31.3800,-55.6083,-53.8569,,,,
04_S4_S5,04/05/2023,16:59:41.900,-0.0020,0.9851,0.1641,42.4576,-4.1275,-10.9482,-31.8179,-52.8352,-58.6733,,,,
04_S4_S5,04/05/2023,16:59:42.000,-0.0229,1.0225,0.0664,30.7922,2.2202,-0.4272,-30.6503,-54.0028,-60.7167,Inactive,0,21.58,
04_S4_S5,04/05/2023,16:59:42.100,-0.0129,1.0308,0.0601,14.3204,-1.8311,-0.4044,-31.8179,-53.1271,-62.1762,,,,
04_S4_S5,04/05/2023,16:59:42.200,-0.0063,1.0066,0.0647,10.3302,1.3351,-0.7858,-31.8179,-53.1271,-62.1762,,,,
04_S4_S5,04/05/2023,16:59:42.300,-0.0193,1.0129,0.0020,12.6648,4.3106,2.9678,-30.9422,-54.2947,-62.4681,,,,
04_S4_S5,04/05/2023,16:59:42.400,-0.0173,1.0171,0.0002,13.9084,-2.1286,2.0905,-30.6503,-52.5433,-64.5115,,,,
04_S4_S5,04/05/2023,16:59:42.500,-0.0105,1.0112,-0.0146,8.9340,-0.7858,1.9608,-30.9422,-52.8352,-65.6791,,,,
04_S4_S5,04/05/2023,16:59:42.600,-0.0117,1.0127,-0.0442,4.6921,3.0289,1.7471,-30.6503,-52.8352,-65.6791,,,,
04_S4_S5,04/05/2023,16:59:42.700,-0.0073,1.0100,-0.0574,9.8038,5.1575,-1.0986,-30.6503,-52.8352,-65.6791,,,,
04_S4_S5,04/05/2023,16:59:42.800,-0.0083,1.0132,-0.1152,18.0969,2.3880,6.6681,-30.2124,-51.2297,-66.1170,,,,
04_S4_S5,04/05/2023,16:59:42.900,0.0317,0.9998,-0.1343,25.2914,7.4387,10.4294,-30.5043,-53.8569,-68.4522,,,,
04_S4_S5,04/05/2023,16:59:43.000,0.0330,0.9744,-0.1890,34.8053,9.6283,1.7166,-28.0231,-54.5866,-68.8901,Inactive,0,21.6,
04_S4_S5,04/05/2023,16:59:43.100,0.0198,0.9753,-0.2773,42.9230,3.6469,-0.1907,-27.0014,-52.9812,-71.9551,,,,
04_S4_S5,04/05/2023,16:59:43.200,0.0190,0.9509,-0.3264,33.3099,5.4245,-1.3657,-27.0014,-52.9812,-71.9551,,,,
04_S4_S5,04/05/2023,16:59:43.300,0.0164,0.9341,-0.3748,27.8625,6.0806,-0.8545,-25.9797,-54.8786,-73.5606,,,,
04_S4_S5,04/05/2023,16:59:43.400,0.0215,0.9150,-0.4077,20.0653,2.3499,-1.1063,-25.1040,-53.1271,-75.0202,,,,
04_S4_S5,04/05/2023,16:59:43.500,0.0232,0.9009,-0.4409,9.0866,-1.2131,1.9073,-23.7904,-55.3164,-75.7499,,,,
04_S4_S5,04/05/2023,16:59:43.600,0.0149,0.9058,-0.4258,9.6207,-3.3646,-0.7935,-23.7904,-55.3164,-75.7499,,,,
04_S4_S5,04/05/2023,16:59:43.700,0.0195,0.8921,-0.4971,26.8402,12.1155,-3.3722,-23.6445,-53.7109,-77.6473,,,,
04_S4_S5,04/05/2023,16:59:43.800,0.0020,0.8293,-0.5439,41.7557,-1.9684,-4.1122,-24.9581,-54.4407,-77.5014,,,,
04_S4_S5,04/05/2023,16:59:43.900,0.0046,0.7957,-0.5842,37.5443,10.8490,-3.0136,-21.3092,-54.8786,-79.9826,,,,
04_S4_S5,04/05/2023,16:59:44.000,0.0176,0.7419,-0.6597,39.6805,10.8719,-0.3738,-19.4118,-55.0245,-82.1719,Inactive,0,21.64,
04_S4_S5,04/05/2023,16:59:44.100,0.0059,0.7061,-0.7148,38.5208,-9.1476,4.3106,-19.4118,-55.0245,-82.1719,,,,
04_S4_S5,04/05/2023,16:59:44.200,0.0020,0.6802,-0.7415,41.4810,-12.8708,7.3013,-17.3685,-55.0245,-83.6314,,,,
04_S4_S5,04/05/2023,16:59:44.300,-0.0142,0.5784,-0.8091,40.5884,-7.1030,3.7231,-14.7413,-53.5650,-85.0909,,,,
04_S4_S5,04/05/2023,16:59:44.400,-0.0256,0.5330,-0.8438,34.9121,-7.6447,2.4338,-11.6763,-51.9595,-86.1126,,,,
04_S4_S5,04/05/2023,16:59:44.500,-0.0303,0.4546,-0.8723,56.5567,0.0916,-3.4714,-7.5896,-53.1271,-87.8641,,,,
04_S4_S5,04/05/2023,16:59:44.600,-0.0347,0.3630,-0.9146,54.6265,-0.6485,0.3662,-7.5896,-53.1271,-87.8641,,,,
04_S4_S5,04/05/2023,16:59:44.700,-0.0332,0.2615,-0.9529,56.0303,3.4027,-0.1984,-5.2543,-52.8352,-89.3236,,,,
04_S4_S5,04/05/2023,16:59:44.800,-0.0388,0.1885,-0.9592,45.7611,-1.3123,2.8458,-0.1460,-51.2297,-88.8857,,,,
04_S4_S5,04/05/2023,16:59:44.900,-0.0417,0.0991,-0.9685,45.9213,-1.3657,1.4343,3.5029,-52.2514,-89.3236,,,,
04_S4_S5,04/05/2023,16:59:45.000,-0.0469,0.0266,-0.9792,39.2838,-0.2975,4.5624,6.1301,-53.4190,-89.0317,Inactive,0,21.64,
04_S4_S5,04/05/2023,16:59:45.100,-0.0454,-0.0112,-0.9731,22.6364,1.9226,4.2114,6.1301,-53.4190,-89.0317,,,,
04_S4_S5,04/05/2023,16:59:45.200,-0.0393,-0.0603,-0.9712,27.9388,5.2719,-0.6027,9.0491,-51.3757,-89.9074,,,,
04_S4_S5,04/05/2023,16:59:45.300,-0.0381,-0.1221,-0.9739,34.4543,6.1951,-5.4092,10.5087,-52.5433,-88.1560,,,,
04_S4_S5,04/05/2023,16:59:45.400,-0.0154,-0.2007,-0.9370,46.2494,3.2654,-8.0795,12.8439,-52.5433,-86.4045,,,,
04_S4_S5,04/05/2023,16:59:45.500,-0.0085,-0.2935,-0.9226,57.1442,7.6599,-10.3531,16.9306,-53.7109,-82.9016,,,,
04_S4_S5,04/05/2023,16:59:45.600,-0.0022,-0.3911,-0.8887,54.1916,2.2888,-7.7972,16.9306,-53.7109,-82.9016,,,,
04_S4_S5,04/05/2023,16:59:45.700,0.0112,-0.4832,-0.8323,59.4940,5.6381,-10.1089,19.9956,-53.5650,-81.5881,,,,
04_S4_S5,04/05/2023,16:59:45.800,0.0173,-0.5984,-0.7778,60.9589,6.1646,-10.3989,22.3309,-55.0245,-78.6690,,,,
04_S4_S5,04/05/2023,16:59:45.900,0.0398,-0.6536,-0.7356,45.2652,13.9084,-4.7607,24.6662,-55.0245,-77.5014,,,,
04_S4_S5,04/05/2023,16:59:46.000,0.0605,-0.6909,-0.6848,42.4576,12.4283,-2.8534,23.7904,-55.9002,-73.9985,Inactive,0,21.65,
04_S4_S5,04/05/2023,16:59:46.100,0.0667,-0.7402,-0.6270,32.6233,4.9896,-0.4578,23.7904,-55.9002,-73.9985,,,,
04_S4_S5,04/05/2023,16:59:46.200,0.0598,-0.7876,-0.5642,38.3911,8.3771,0.3738,27.5852,-55.3164,-70.4956,,,,
04_S4_S5,04/05/2023,16:59:46.300,0.0828,-0.8245,-0.5042,50.2625,9.5139,4.9515,29.0448,-56.1921,-68.7441,,,,
04_S4_S5,04/05/2023,16:59:46.400,0.0627,-0.8662,-0.4551,32.9590,5.6000,5.5542,29.3367,-55.0245,-64.6574,,,,
04_S4_S5,04/05/2023,16:59:46.500,0.0710,-0.8875,-0.3967,27.5192,1.1368,2.4033,29.6286,-55.6083,-64.3655,,,,
04_S4_S5,04/05/2023,16:59:46.600,0.0688,-0.9019,-0.3733,19.0201,-3.7918,-0.6485,29.6286,-55.6083,-64.3655,,,,
04_S4_S5,04/05/2023,16:59:46.700,0.0598,-0.9062,-0.3613,8.3771,1.8616,2.5940,30.0664,-55.1705,-63.9277,,,,
04_S4_S5,04/05/2023,16:59:46.800,0.0593,-0.9434,-0.3000,24.4675,1.2131,1.8082,30.6503,-55.7543,-61.8843,,,,
04_S4_S5,04/05/2023,16:59:46.900,0.0437,-0.9314,-0.2646,34.9045,4.5395,12.1460,31.2341,-54.0028,-59.5491,,,,
04_S4_S5,04/05/2023,16:59:47.000,0.0439,-0.9646,-0.1875,35.3699,2.3193,3.9825,30.5043,-53.8569,-57.3598,Inactive,0,21.66,
04_S4_S5,04/05/2023,16:59:47.100,0.0347,-0.9878,-0.1509,18.5852,4.4403,3.1815,30.5043,-53.8569,-57.3598,,,,
04_S4_S5,04/05/2023,16:59:47.200,0.0239,-0.9631,-0.1257,16.4337,5.5847,4.4403,31.8179,-53.7109,-56.0462,,,,
04_S4_S5,04/05/2023,16:59:47.300,0.0261,-0.9829,-0.1150,6.9199,3.3340,-2.6321,31.5260,-54.2947,-55.4624,,,,
04_S4_S5,04/05/2023,16:59:47.400,0.0369,-0.9851,-0.0991,14.2059,6.4240,-1.2283,32.1098,-54.0028,-53.4190,,,,
04_S4_S5,04/05/2023,16:59:47.500,0.0366,-0.9873,-0.0688,9.8572,11.8637,0.0839,32.1098,-54.0028,-53.4190,,,,
04_S4_S5,04/05/2023,16:59:47.600,0.0437,-0.9993,-0.0693,7.5760,-1.4114,-8.2016,30.3583,-54.2947,-53.4190,,,,
04_S4_S5,04/05/2023,16:59:47.700,0.0837,-0.9766,0.0491,60.7376,-2.1973,-15.1596,29.7745,-56.0462,-50.4999,,,,
04_S4_S5,04/05/2023,16:59:47.800,0.0791,-0.9954,0.1616,64.6133,1.3046,-7.4463,28.6069,-56.0462,-46.7052,,,,
04_S4_S5,04/05/2023,16:59:47.900,0.1113,-0.9680,0.2498,47.7905,-2.5253,-5.9662,26.4176,-55.3164,-43.6401,,,,
04_S4_S5,04/05/2023,16:59:48.000,0.1316,-0.9072,0.3394,73.6313,-4.3030,-2.7542,26.4176,-55.3164,-43.6401,Inactive,0,21.68,
04_S4_S5,04/05/2023,16:59:48.100,0.0996,-0.9058,0.4446,39.7949,10.7346,1.7395,25.1040,-56.6300,-39.1156,,,,
04_S4_S5,04/05/2023,16:59:48.200,0.0889,-0.8816,0.5066,39.0167,3.5629,0.6180,23.6445,-56.3381,-37.9479,,,,
04_S4_S5,04/05/2023,16:59:48.300,0.1069,-0.8342,0.5986,42.1448,2.4643,-0.6714,21.7471,-56.7760,-34.5910,,,,
04_S4_S5,04/05/2023,16:59:48.400,0.1050,-0.7847,0.6416,65.8646,6.8512,0.1297,17.8063,-56.3381,-32.1098,,,,
04_S4_S5,04/05/2023,16:59:48.500,0.1157,-0.7412,0.7124,45.6238,4.5853,2.0447,17.8063,-56.3381,-32.1098,,,,
04_S4_S5,04/05/2023,16:59:48.600,0.0833,-0.6638,0.7910,47.2488,4.9515,0.7935,16.3468,-55.7543,-29.7745,,,,
04_S4_S5,04/05/2023,16:59:48.700,0.1067,-0.5823,0.8274,57.5485,1.5869,1.9455,13.5737,-55.9002,-29.3367,,,,
04_S4_S5,04/05/2023,16:59:48.800,0.0581,-0.5122,0.8982,39.4592,8.5602,0.5188,12.1141,-55.3164,-27.2933,,,,
04_S4_S5,04/05/2023,16:59:48.900,0.0637,-0.4263,0.9424,49.3774,10.9177,1.6861,8.4653,-55.4624,-26.2716,,,,
04_S4_S5,04/05/2023,16:59:49.000,0.0386,-0.3240,0.9761,78.0945,22.2855,7.6294,8.4653,-55.4624,-26.2716,Inactive,0,21.69,
04_S4_S5,04/05/2023,16:59:49.100,0.0349,-0.2292,0.9978,47.5540,17.2043,-9.8953,1.6055,-54.1488,-23.7904,,,,
04_S4_S5,04/05/2023,16:59:49.200,-0.0103,-0.1836,1.0269,14.9689,13.1454,-18.6081,-0.8757,-52.5433,-22.7688,,,,
04_S4_S5,04/05/2023,16:59:49.300,-0.0012,-0.1760,1.0110,6.8817,4.0283,-6.9504,-0.8757,-52.8352,-23.9364,,,,
04_S4_S5,04/05/2023,16:59:49.400,-0.0234,-0.1646,1.0334,6.1951,6.1874,-2.3804,-2.9191,-52.8352,-23.6445,,,,
04_S4_S5,04/05/2023,16:59:49.500,-0.0359,-0.1870,1.0452,4.3182,3.9520,-1.0071,-2.9191,-52.8352,-23.6445,,,,
04_S4_S5,04/05/2023,16:59:49.600,0.0178,-0.1521,1.0186,-1.8234,-0.0839,-7.2250,-1.6055,-51.8135,-23.7904,,,,
04_S4_S5,04/05/2023,16:59:49.700,0.0100,-0.1719,1.0220,-5.9814,2.9526,-6.1188,-2.9191,-53.1271,-23.3526,,,,
04_S4_S5,04/05/2023,16:59:49.800,-0.0034,-0.1926,1.0210,-5.9128,3.4714,-5.1880,-2.7731,-52.1054,-23.4985,,,,
04_S4_S5,04/05/2023,16:59:49.900,-0.0081,-0.1816,1.0320,-10.5438,7.8125,-11.9629,-2.6272,-52.5433,-22.1849,,,,
04_S4_S5,04/05/2023,16:59:50.000,-0.0298,-0.2073,1.0359,-6.4468,8.7357,-5.5847,-2.6272,-52.5433,-22.1849,Inactive,0,21.7,
04_S4_S5,04/05/2023,16:59:50.100,-0.0034,-0.2168,1.0093,-4.5395,3.8147,-1.6785,-1.7514,-51.9595,-23.3526,,,,
04_S4_S5,04/05/2023,16:59:50.200,-0.0488,-0.2305,1.0264,-4.9362,8.1787,-2.1133,-1.6055,-50.6459,-23.2066,,,,
04_S4_S5,04/05/2023,16:59:50.300,-0.0491,-0.2161,1.0239,-1.6785,4.2496,0.1755,-0.5838,-50.2080,-21.8930,,,,
04_S4_S5,04/05/2023,16:59:50.400,-0.0432,-0.2305,1.0105,1.8158,1.3199,2.1591,-0.7298,-50.0621,-21.1633,,,,
04_S4_S5,04/05/2023,16:59:50.500,0.0034,-0.2073,1.0088,8.8120,-1.2207,8.0338,-0.7298,-50.0621,-21.1633,,,,
04_S4_S5,04/05/2023,16:59:50.600,-0.0415,-0.1924,1.0193,7.2556,1.7395,6.8130,-2.6272,-50.2080,-21.6011,,,,
04_S4_S5,04/05/2023,16:59:50.700,-0.0483,-0.1836,1.0222,12.5427,0.8087,4.1199,-3.2110,-50.7919,-22.7688,,,,
04_S4_S5,04/05/2023,16:59:50.800,-0.0469,-0.1536,1.0298,12.2681,2.3956,-0.2518,-4.0867,-51.9595,-23.3526,,,,
04_S4_S5,04/05/2023,16:59:50.900,-0.0291,-0.1064,1.0295,16.9144,-2.2430,3.5782,-5.4003,-58.8193,-24.3743,,,,
04_S4_S5,04/05/2023,16:59:51.000,0.0029,-0.0520,1.0383,18.5318,-5.3711,1.3657,-5.4003,-58.8193,-24.3743,Inactive,0,21.69,
04_S4_S5,04/05/2023,16:59:51.100,-0.0139,-0.0510,1.0691,12.9623,-0.6180,0.6027,-9.1951,-75.7499,-7.7355,,,,
04_S4_S5,04/05/2023,16:59:51.200,-0.0095,-0.0356,1.0476,5.9814,-1.1520,-1.3275,-59.2572,-104.7947,101.2918,,,,
04_S4_S5,04/05/2023,16:59:51.300,0.0220,-0.0220,1.0393,1.0147,-2.9068,0.3967,-309.2757,-8.0274,737.2116,,,,
04_S4_S5,04/05/2023,16:59:51.400,-0.0088,-0.0496,1.0486,-3.0289,-0.0763,2.7466,-696.0527,842.5901,3939.4336,,,,
04_S4_S5,04/05/2023,16:59:51.500,0.0305,-0.0374,1.0298,-1.6937,-2.5024,3.4714,-696.0527,842.5901,3939.4336,,,,TIMEMARK!
04_S4_S5,04/05/2023,16:59:51.600,0.0007,-0.0469,1.0408,0.3967,1.2665,3.2043,-409.6918,409.6918,4372.3320,,,,
04_S4_S5,04/05/2023,16:59:51.700,0.0269,-0.0417,1.0366,0.2518,1.8463,1.4572,0.0000,0.0000,4782.0238,,,,
04_S4_S5,04/05/2023,16:59:51.800,0.0068,-0.0469,1.0435,-2.6169,4.3411,0.0763,0.0000,0.0000,4782.0238,,,,
04_S4_S5,04/05/2023,16:59:51.900,0.0042,-0.0505,1.0461,-1.4496,2.8687,0.2594,0.0000,0.0000,4782.0238,,,,
04_S4_S5,04/05/2023,16:59:52.000,0.0137,-0.0432,1.0369,-1.3199,1.9760,0.3586,0.0000,0.0000,4782.0238,Inactive,0,21.69,
04_S4_S5,04/05/2023,16:59:52.100,-0.0022,-0.0505,1.0471,-2.4796,2.9602,0.1297,0.0000,0.0000,4782.0238,,,,
04_S4_S5,04/05/2023,16:59:52.200,0.0156,-0.0413,1.0398,-1.6708,2.0981,-0.5722,0.0000,0.0000,4782.0238,,,,
04_S4_S5,04/05/2023,16:59:52.300,0.0107,-0.0579,1.0286,-2.8839,3.3798,-0.4883,0.0000,0.0000,4782.0238,,,,
04_S4_S5,04/05/2023,16:59:52.400,-0.0078,-0.0444,1.0505,-0.2670,4.5929,-0.0610,0.0000,0.0000,4782.0238,,,,
04_S4_S5,04/05/2023,16:59:52.500,0.0046,-0.0459,1.0393,-0.4425,1.5488,0.5493,0.0000,0.0000,4782.0238,,,,
04_S4_S5,04/05/2023,16:59:52.600,0.0015,-0.0510,1.0374,-1.4496,2.6779,0.3128,0.0000,0.0000,4782.0238,,,,
04_S4_S5,04/05/2023,16:59:52.700,0.0056,-0.0659,1.0278,-0.8163,4.2801,-0.2823,0.0000,0.0000,4782.0238,,,,
04_S4_S5,04/05/2023,16:59:52.800,0.0034,-0.0605,1.0535,2.2888,6.1340,1.6861,30.2124,-115.4493,92.0967,,,,
04_S4_S5,04/05/2023,16:59:52.900,-0.0498,-0.0173,1.0532,-3.0670,6.3553,1.0376,30.2124,-115.4493,92.0967,,,,
04_S4_S5,04/05/2023,16:59:53.000,-0.0125,-0.0186,1.0154,-4.3564,-3.6392,1.9150,12.1141,-91.2210,12.9899,Inactive,0,21.74,
04_S4_S5,04/05/2023,16:59:53.100,0.0024,-0.0642,1.0486,0.4196,-3.8605,1.3885,13.7196,-92.5346,11.6763,,,,
04_S4_S5,04/05/2023,16:59:53.200,0.0278,-0.0571,1.0527,-1.7319,1.6556,-0.3662,13.1358,-91.9508,9.9248,,,,
04_S4_S5,04/05/2023,16:59:53.300,0.0339,-0.0569,1.0122,-2.7466,5.2185,0.9537,12.6980,-90.9291,10.6546,,,,
04_S4_S5,04/05/2023,16:59:53.400,-0.0449,-0.0588,1.0576,-3.7155,13.1073,-1.0910,12.6980,-90.9291,10.6546,,,,
04_S4_S5,04/05/2023,16:59:53.500,-0.0500,-0.0459,1.0498,-2.4872,6.5231,-2.2354,14.1575,-89.7615,10.0708,,,,
04_S4_S5,04/05/2023,16:59:53.600,-0.0415,-0.0676,1.0320,-0.6638,-1.2894,-0.9232,13.1358,-90.4912,10.8006,,,,
04_S4_S5,04/05/2023,16:59:53.700,-0.0308,-0.0627,1.0510,-0.2289,-1.4038,-1.2970,13.2818,-91.8048,10.0708,,,,
04_S4_S5,04/05/2023,16:59:53.800,0.0039,-0.0669,1.0383,-0.4959,-1.4114,0.6790,13.2818,-90.3453,10.6546,,,,
04_S4_S5,04/05/2023,16:59:53.900,-0.0022,-0.0496,1.0417,-1.0147,0.8621,0.9689,13.2818,-90.3453,10.6546,,,,
04_S4_S5,04/05/2023,16:59:54.000,0.0000,0.0000,0.0000,0.0000,0.0000,0.0000,0.0000,0.0000,0.0000,Inactive,,21,Power off command received.
