TagID;Date;Time;accX;accY;accZ;gyroX;gyroY;gyroZ;compX;compY;compZ;Activity;Depth;Temp. (?C);Metadata
04_S10;04/05/2023;16:19:26.000;-0.0210;0.0093;10.090;230.331;84.839;-22.659;507.919;-642.196;230.607;Active;715.719.767.635.148;-368.68;
04_S10;04/05/2023;16:19:26.100;-0.0332;0.0813;10.320;367.889;148.087;-0.1068;471.430;-620.303;258.338;;;;
04_S10;04/05/2023;16:19:26.200;-0.0322;0.2048;10.498;651.245;70.953;-10.071;437.861;-613.005;277.312;;;;
04_S10;04/05/2023;16:19:26.300;-0.0759;0.3022;0.9651;677.872;61.340;-61.264;404.291;-614.465;299.205;;;;
04_S10;04/05/2023;16:19:26.400;-0.0613;0.3118;0.9756;399.933;13.504;-0.7706;404.291;-614.465;299.205;;;;
04_S10;04/05/2023;16:19:26.500;-0.0466;0.3213;0.9863;121.918;-34.332;45.853;404.291;-614.465;299.205;;;;
04_S10;04/05/2023;16:19:26.600;-0.0439;0.3647;0.9666;297.623;16.937;26.855;380.939;-623.222;293.367;;;;
04_S10;04/05/2023;16:19:26.700;-0.0500;0.4556;0.9294;474.472;48.370;-28.458;345.910;-620.303;290.448;;;;
04_S10;04/05/2023;16:19:26.800;-0.0537;0.5386;0.8896;605.469;57.068;-67.062;300.664;-601.329;309.422;;;;
04_S10;04/05/2023;16:19:26.900;-0.0688;0.6526;0.7373;1.180.649;-51.270;-16.785;218.930;-613.005;300.664;;;;
04_S10;04/05/2023;16:19:27.000;-0.0271;0.8538;0.5728;1.264.420;-95.825;120.087;218.930;-613.005;300.664;Inactive;0;22.97;
04_S10;04/05/2023;16:19:27.100;-0.0142;0.9412;0.4478;899.048;-83.694;42.419;129.899;-623.222;249.581;;;;
04_S10;04/05/2023;16:19:27.200;-0.0303;0.9531;0.3298;611.725;43.411;-99.106;71.517;-629.060;220.390;;;;
04_S10;04/05/2023;16:19:27.300;-0.0374;0.9915;0.2261;597.153;-16.403;-80.032;40.867;-615.924;195.578;;;;
04_S10;04/05/2023;16:19:27.400;-0.0547;10.181;0.1006;710.144;-39.520;-77.972;21.893;-634.898;144.494;;;;
04_S10;04/05/2023;16:19:27.500;-0.0742;10.120;0.0085;590.210;-51.422;-82.092;21.893;-634.898;144.494;;;;
04_S10;04/05/2023;16:19:27.600;-0.0845;0.9980;-0.0874;533.524;0.8316;-78.278;-0.4379;-611.546;109.465;;;;
04_S10;04/05/2023;16:19:27.700;-0.0945;0.9673;-0.1768;494.995;54.092;-47.455;-24.812;-611.546;56.922;;;;
04_S10;04/05/2023;16:19:27.800;-0.1025;0.9551;-0.2991;667.572;0.7553;-31.433;-29.191;-607.167;11.676;;;;
04_S10;04/05/2023;16:19:27.900;-0.1091;0.9019;-0.4148;692.291;38.757;-38.986;-58.381;-607.167;-43.786;;;;
04_S10;04/05/2023;16:19:28.000;-0.1157;0.8491;-0.5178;632.629;0.6561;-45.090;-58.381;-607.167;-43.786;Inactive;0;22.97;
04_S10;04/05/2023;16:19:28.100;-0.1179;0.7944;-0.5776;589.218;-39.215;0.4349;-40.867;-613.005;-84.653;;;;
04_S10;04/05/2023;16:19:28.200;-0.1353;0.7166;-0.6689;592.270;-84.305;-0.8240;-48.165;-605.707;-138.656;;;;
04_S10;04/05/2023;16:19:28.300;-0.1423;0.6509;-0.7454;641.098;-17.929;0.4578;-43.786;-613.005;-186.821;;;;
04_S10;04/05/2023;16:19:28.400;-0.1482;0.5386;-0.7859;701.065;40.436;-31.891;0.0000;-607.167;-248.121;;;;
04_S10;04/05/2023;16:19:28.500;-0.1313;0.4290;-0.8877;733.032;162.735;-52.414;0.0000;-607.167;-248.121;;;;
04_S10;04/05/2023;16:19:28.600;-0.1182;0.3015;-0.9441;680.161;176.544;-69.885;29.191;-607.167;-283.150;;;;
04_S10;04/05/2023;16:19:28.700;-0.0774;0.1982;-0.9719;665.665;201.874;-105.515;62.760;-605.707;-331.315;;;;
04_S10;04/05/2023;16:19:28.800;-0.0425;0.1421;-0.9802;373.764;373.383;-27.466;80.274;-623.222;-357.586;;;;
04_S10;04/05/2023;16:19:28.900;0.0483;0.0547;-0.9854;353.317;439.453;78.964;80.274;-623.222;-357.586;;;;
04_S10;04/05/2023;16:19:29.000;0.1301;-0.0103;-0.9519;301.056;298.004;48.218;102.168;-662.629;-356.127;Inactive;0;23.01;
04_S10;04/05/2023;16:19:29.100;0.1069;-0.0144;-0.9875;247.726;77.209;-55.084;119.682;-674.306;-361.965;;;;
04_S10;04/05/2023;16:19:29.200;0.1624;-0.0713;-0.9797;71.640;248.871;100.784;131.358;-674.306;-361.965;;;;
04_S10;04/05/2023;16:19:29.300;0.1931;-0.0471;-0.9563;-11.139;330.276;-13.351;140.115;-697.658;-359.046;;;;
04_S10;04/05/2023;16:19:29.400;0.2642;-0.0457;-0.9429;-0.7782;285.568;0.5112;140.115;-697.658;-359.046;;;;
04_S10;04/05/2023;16:19:29.500;0.2913;-0.0728;-0.9375;99.030;362.701;101.700;135.737;-704.956;-360.505;;;;
04_S10;04/05/2023;16:19:29.600;0.3296;-0.0879;-0.9385;-10.376;256.119;103.073;132.818;-725.389;-351.748;;;;
04_S10;04/05/2023;16:19:29.700;0.3452;-0.0732;-0.9109;0.1526;87.585;21.667;153.251;-742.904;-345.910;;;;
04_S10;04/05/2023;16:19:29.800;0.3567;-0.0894;-0.9197;-0.5875;95.444;13.123;153.251;-760.418;-342.991;;;;
04_S10;04/05/2023;16:19:29.900;0.3525;-0.0833;-0.9075;-0.8698;-33.951;11.978;153.251;-760.418;-342.991;;;;
04_S10;04/05/2023;16:19:30.000;0.3467;-0.0901;-0.9197;-19.302;-18.921;19.150;148.873;-744.363;-338.612;Inactive;0;23.02;
04_S10;04/05/2023;16:19:30.100;0.3411;-0.0798;-0.9175;-21.744;48.218;19.608;148.873;-744.363;-324.017;;;;
04_S10;04/05/2023;16:19:30.200;0.3113;-0.0823;-0.9287;-63.019;-134.125;77.209;145.954;-758.959;-332.774;;;;
04_S10;04/05/2023;16:19:30.300;0.2822;-0.0623;-0.9443;-242.462;-320.129;-50.125;131.358;-726.849;-344.450;;;;
04_S10;04/05/2023;16:19:30.400;0.2463;-0.0315;-0.9390;-83.847;-260.849;-140.305;131.358;-726.849;-344.450;;;;
04_S10;04/05/2023;16:19:30.500;0.2708;-0.0884;-0.9187;74.463;96.664;47.150;126.980;-704.956;-357.586;;;;
04_S10;04/05/2023;16:19:30.600;0.3054;-0.0642;-0.9346;279.007;560.379;185.776;148.873;-723.930;-350.289;;;;
04_S10;04/05/2023;16:19:30.700;0.3960;-0.1072;-0.9075;99.106;591.431;71.640;148.873;-782.311;-315.260;;;;
04_S10;04/05/2023;16:19:30.800;0.5017;-0.1084;-0.8594;-98.419;641.861;-0.5417;162.008;-789.609;-305.043;;;;
04_S10;04/05/2023;16:19:30.900;0.6057;-0.1072;-0.7722;-77.057;686.188;-26.703;162.008;-789.609;-305.043;;;;
04_S10;04/05/2023;16:19:31.000;0.7485;-0.0461;-0.6538;-27.542;514.679;-163.193;147.413;-842.152;-223.309;Inactive;0;23.03;
04_S10;04/05/2023;16:19:31.100;0.8320;-0.0420;-0.5439;-65.079;594.940;-99.792;132.818;-853.829;-185.361;;;;
04_S10;04/05/2023;16:19:31.200;0.8633;-0.0388;-0.5061;-122.681;740.280;79.346;137.196;-878.641;-122.601;;;;
04_S10;04/05/2023;16:19:31.300;0.9202;-0.0215;-0.3762;140.610;365.906;-86.746;137.196;-878.641;-122.601;;;;
04_S10;04/05/2023;16:19:31.400;0.9434;-0.0366;-0.3091;179.214;673.523;-34.409;122.601;-866.964;-122.601;;;;
04_S10;04/05/2023;16:19:31.500;0.9849;-0.0398;-0.1970;36.240;621.948;31.357;119.682;-884.479;-90.491;;;;
04_S10;04/05/2023;16:19:31.600;0.9783;-0.0110;-0.0659;110.550;635.910;-138.168;118.222;-880.100;-36.488;;;;
04_S10;04/05/2023;16:19:31.700;0.9963;0.0051;0.0098;69.504;611.725;-182.343;103.627;-850.909;-0.7298;;;;
04_S10;04/05/2023;16:19:31.800;10.132;0.0278;0.1431;66.528;754.166;-264.587;103.627;-850.909;-0.7298;;;;
04_S10;04/05/2023;16:19:31.900;0.9863;0.0620;0.2390;107.117;673.599;-201.340;84.653;-829.016;32.110;;;;
04_S10;04/05/2023;16:19:32.000;0.9514;0.0864;0.3325;0.8850;376.511;-72.403;81.734;-814.421;55.462;Inactive;0;23.04;
04_S10;04/05/2023;16:19:32.100;0.9585;0.0996;0.3831;-24.261;337.448;134.048;84.653;-817.340;90.491;;;;
04_S10;04/05/2023;16:19:32.200;0.9045;0.0583;0.4644;-284.348;613.556;100.861;103.627;-801.285;118.222;;;;
04_S10;04/05/2023;16:19:32.300;0.8774;0.0254;0.5466;-182.877;510.178;44.937;103.627;-801.285;118.222;;;;
04_S10;04/05/2023;16:19:32.400;0.8318;0.0122;0.6428;-85.907;541.077;-19.226;121.141;-772.095;147.413;;;;
04_S10;04/05/2023;16:19:32.500;0.7415;-0.0056;0.6877;-29.602;732.880;-42.419;102.168;-747.282;175.144;;;;
04_S10;04/05/2023;16:19:32.600;0.6562;0.0303;0.8157;115.204;692.215;57.831;108.006;-703.496;192.659;;;;
04_S10;04/05/2023;16:19:32.700;0.5627;0.0554;0.8738;57.373;670.013;59.662;106.546;-678.684;211.633;;;;
04_S10;04/05/2023;16:19:32.800;0.4707;0.0342;0.8816;-14.343;644.226;35.934;106.546;-678.684;211.633;;;;
04_S10;04/05/2023;16:19:32.900;0.4136;0.0439;0.9631;-42.114;464.325;30.289;103.627;-646.574;208.714;;;;
04_S10;04/05/2023;16:19:33.000;0.2817;0.0151;0.9241;-150.833;596.771;-193.863;115.303;-602.788;234.985;Inactive;0;23.09;
04_S10;04/05/2023;16:19:33.100;0.2339;-0.0393;10.171;-222.473;495.071;-51.270;118.222;-573.598;237.904;;;;
04_S10;04/05/2023;16:19:33.200;0.1536;-0.0083;10.496;77.591;468.369;-59.586;118.222;-573.598;237.904;;;;
04_S10;04/05/2023;16:19:33.300;0.0684;0.0361;10.066;58.517;553.513;-106.125;124.061;-541.488;232.066;;;;
04_S10;04/05/2023;16:19:33.400;-0.0488;-0.0117;10.007;-65.613;646.515;-212.631;115.303;-486.025;223.309;;;;
04_S10;04/05/2023;16:19:33.500;-0.1453;-0.0295;10.156;-135.880;620.575;-118.332;116.763;-458.294;227.688;;;;
04_S10;04/05/2023;16:19:33.600;-0.2595;-0.0540;0.9900;-210.648;790.253;48.752;145.954;-405.751;198.497;;;;
04_S10;04/05/2023;16:19:33.700;-0.4224;-0.0608;0.9500;-81.558;929.413;124.817;145.954;-405.751;198.497;;;;
04_S10;04/05/2023;16:19:33.800;-0.5759;-0.0579;0.8279;-123.215;1.188.431;167.007;147.413;-357.586;162.008;;;;
04_S10;04/05/2023;16:19:33.900;-0.7046;-0.1025;0.7207;-125.732;1.039.581;84.610;129.899;-316.719;106.546;;;;
04_S10;04/05/2023;16:19:34.000;-0.8127;-0.0205;0.5762;0.3357;989.456;231.705;143.035;-283.150;52.543;Inactive;0;23.07;
04_S10;04/05/2023;16:19:34.100;-0.9043;-0.0017;0.4392;56.839;810.471;211.639;126.980;-275.852;-16.055;;;;
04_S10;04/05/2023;16:19:34.200;-0.9111;0.0139;0.3992;33.417;415.649;105.438;126.980;-275.852;-16.055;;;;
04_S10;04/05/2023;16:19:34.300;-0.9414;0.0159;0.3301;-46.692;473.862;74.081;97.789;-281.690;-36.488;;;;
04_S10;04/05/2023;16:19:34.400;-0.9492;0.0432;0.2190;19.226;635.300;16.098;100.708;-284.610;-56.922;;;;
04_S10;04/05/2023;16:19:34.500;-0.9561;0.0288;0.1062;0.1068;687.256;-37.155;108.006;-268.555;-113.844;;;;
04_S10;04/05/2023;16:19:34.600;-10.076;0.0198;0.0181;-11.749;463.257;-32.120;121.141;-275.852;-138.656;;;;
04_S10;04/05/2023;16:19:34.700;-0.9771;0.0398;-0.0503;33.722;479.965;88.806;121.141;-275.852;-138.656;;;;
04_S10;04/05/2023;16:19:34.800;-0.9763;0.0471;-0.1824;16.479;659.332;105.743;102.168;-297.745;-172.225;;;;
04_S10;04/05/2023;16:19:34.900;-0.9280;0.0654;-0.2549;36.697;554.504;27.618;112.384;-322.557;-211.633;;;;
04_S10;04/05/2023;16:19:35.000;-0.9336;0.0645;-0.4016;-23.346;579.834;0.5035;109.465;-334.234;-249.581;Inactive;0;23.11;
04_S10;04/05/2023;16:19:35.100;-0.8901;0.0613;-0.4272;-119.553;432.510;29.373;110.925;-356.127;-259.797;;;;
04_S10;04/05/2023;16:19:35.200;-0.8606;0.1035;-0.4509;-109.634;360.184;55.542;110.925;-356.127;-259.797;;;;
04_S10;04/05/2023;16:19:35.300;-0.8137;0.1013;-0.5200;-47.302;371.094;-0.8316;103.627;-366.344;-281.690;;;;
04_S10;04/05/2023;16:19:35.400;-0.8113;0.0908;-0.5850;-27.771;425.415;-0.2213;86.113;-386.777;-293.367;;;;
04_S10;04/05/2023;16:19:35.500;-0.7708;0.0703;-0.6343;59.280;438.461;-53.787;102.168;-396.994;-309.422;;;;
04_S10;04/05/2023;16:19:35.600;-0.6316;0.0569;-0.6980;77.820;500.488;-33.112;115.303;-421.806;-328.396;;;;
04_S10;04/05/2023;16:19:35.700;-0.5835;0.0479;-0.7893;-44.174;671.005;-46.539;115.303;-421.806;-328.396;;;;
04_S10;04/05/2023;16:19:35.800;-0.4888;0.0735;-0.8350;-89.493;799.866;-0.7477;93.410;-461.213;-344.450;;;;
04_S10;04/05/2023;16:19:35.900;-0.3389;0.1333;-0.8838;-241.623;791.931;-29.831;84.653;-496.242;-356.127;;;;
04_S10;04/05/2023;16:19:36.000;-0.2031;0.1279;-0.9377;-273.132;1.203.842;69.656;75.896;-563.381;-344.450;Inactive;0;23.13;
04_S10;04/05/2023;16:19:36.100;0.0435;0.1479;-0.9731;-49.744;1.221.771;151.978;75.896;-650.953;-326.936;;;;
04_S10;04/05/2023;16:19:36.200;0.2734;0.1541;-10.049;68.970;1.341.553;227.890;75.896;-650.953;-326.936;;;;
04_S10;04/05/2023;16:19:36.300;0.3982;0.1331;-0.9241;44.174;888.977;65.765;81.734;-718.092;-315.260;;;;
04_S10;04/05/2023;16:19:36.400;0.4763;0.1333;-0.8606;-22.278;470.352;11.368;75.896;-761.878;-280.231;;;;
04_S10;04/05/2023;16:19:36.500;0.5437;0.1211;-0.8142;-31.128;344.086;-0.5264;77.355;-772.095;-267.095;;;;
04_S10;04/05/2023;16:19:36.600;0.6587;0.1011;-0.7666;23.956;829.620;77.896;78.815;-802.745;-230.607;;;;
04_S10;04/05/2023;16:19:36.700;0.7302;0.1050;-0.6458;30.441;897.217;112.534;78.815;-802.745;-230.607;;;;
04_S10;04/05/2023;16:19:36.800;0.8638;0.1067;-0.4785;-44.174;986.176;-0.2975;83.194;-833.395;-188.280;;;;
04_S10;04/05/2023;16:19:36.900;0.9529;0.1118;-0.3228;-63.019;1.212.463;0.0916;94.870;-853.829;-97.789;;;;
04_S10;04/05/2023;16:19:37.000;0.9900;0.1182;-0.1499;-52.414;886.688;-85.754;86.113;-839.233;-48.165;Inactive;0;23.2;
04_S10;04/05/2023;16:19:37.100;10.195;0.1331;0.0066;-105.896;1.124.268;-28.610;86.113;-839.233;-48.165;;;;
04_S10;04/05/2023;16:19:37.200;0.9858;0.1384;0.2034;-110.855;1.123.581;53.711;89.032;-824.638;24.812;;;;
04_S10;04/05/2023;16:19:37.300;0.9351;0.1279;0.3433;-68.588;923.920;0.2518;86.113;-810.042;74.436;;;;
04_S10;04/05/2023;16:19:37.400;0.9280;0.1445;0.5435;12.131;759.583;-80.872;96.329;-782.311;125.520;;;;
04_S10;04/05/2023;16:19:37.500;0.7500;0.1372;0.6853;104.980;1.632.080;-60.959;84.653;-718.092;172.225;;;;
04_S10;04/05/2023;16:19:37.600;0.5894;0.1711;0.8291;141.525;1.175.003;-34.714;84.653;-718.092;172.225;;;;
04_S10;04/05/2023;16:19:37.700;0.4260;0.1711;0.9187;107.651;1.060.944;0.3357;83.194;-652.413;197.037;;;;
04_S10;04/05/2023;16:19:37.800;0.3044;0.1877;0.9639;109.024;925.522;75.684;68.598;-591.112;194.118;;;;
04_S10;04/05/2023;16:19:37.900;0.1765;0.2568;0.9954;254.440;638.275;25.787;58.381;-540.028;186.821;;;;
04_S10;04/05/2023;16:19:38.000;0.1497;0.2588;10.105;93.536;282.211;-0.1297;39.407;-535.650;185.361;Inactive;0;23.22;
04_S10;04/05/2023;16:19:38.100;0.0613;0.2766;10.061;-0.1068;547.714;-25.635;39.407;-535.650;185.361;;;;
04_S10;04/05/2023;16:19:38.200;-0.0740;0.2961;10.022;69.504;843.353;-71.182;55.462;-504.999;166.387;;;;
04_S10;04/05/2023;16:19:38.300;-0.1843;0.2534;0.9929;-202.255;511.780;-138.474;48.165;-465.592;150.332;;;;
04_S10;04/05/2023;16:19:38.400;-0.2053;0.1626;0.9937;-514.069;245.209;-91.095;67.139;-449.537;180.982;;;;
04_S10;04/05/2023;16:19:38.500;-0.2524;0.0801;10.203;-420.456;153.351;13.733;100.708;-433.482;191.199;;;;
04_S10;04/05/2023;16:19:38.600;-0.2234;0.0679;10.186;-210.190;-86.365;0.4807;100.708;-433.482;191.199;;;;
04_S10;04/05/2023;16:19:38.700;-0.2310;0.0139;10.134;-214.920;109.558;17.776;108.006;-449.537;189.740;;;;
04_S10;04/05/2023;16:19:38.800;-0.2510;-0.0115;10.354;-241.470;305.252;-14.496;126.980;-424.725;202.876;;;;
04_S10;04/05/2023;16:19:38.900;-0.3945;-0.0413;0.9355;-128.479;739.365;0.0229;131.358;-399.913;180.982;;;;
04_S10;04/05/2023;16:19:39.000;-0.4604;-0.0181;0.9309;-12.436;850.143;231.781;112.384;-348.829;147.413;Inactive;0;23.23;
04_S10;04/05/2023;16:19:39.100;-0.7251;0.0020;0.6707;-23.499;1.572.876;177.460;112.384;-348.829;147.413;;;;
04_S10;04/05/2023;16:19:39.200;-0.7773;-0.0405;0.6709;-72.479;492.783;-118.027;125.520;-321.098;81.734;;;;
04_S10;04/05/2023;16:19:39.300;-0.8181;-0.0635;0.5862;-76.675;618.820;-180.206;137.196;-297.745;49.624;;;;
04_S10;04/05/2023;16:19:39.400;-0.8977;-0.0735;0.4180;-23.117;906.219;-55.695;156.170;-267.095;0.7298;;;;
04_S10;04/05/2023;16:19:39.500;-0.9451;-0.0608;0.3057;-15.564;767.746;82.474;131.358;-256.878;-40.867;;;;
04_S10;04/05/2023;16:19:39.600;-0.9695;-0.0549;0.2019;-56.839;778.732;82.855;131.358;-256.878;-40.867;;;;
04_S10;04/05/2023;16:19:39.700;-0.9688;-0.0051;-0.0403;-94.376;1.184.082;130.157;121.141;-264.176;-100.708;;;;
04_S10;04/05/2023;16:19:39.800;-0.9624;-0.0002;-0.1765;-48.828;859.299;77.820;121.141;-290.448;-176.604;;;;
04_S10;04/05/2023;16:19:39.900;-0.9260;0.0002;-0.1997;-38.834;527.420;150.604;121.141;-299.205;-208.714;;;;
04_S10;04/05/2023;16:19:40.000;-0.8706;0.0481;-0.4146;-71.793;1.054.153;196.533;100.708;-357.586;-261.257;Inactive;0;23.22;
04_S10;04/05/2023;16:19:40.100;-0.8054;0.0859;-0.5891;-109.863;876.236;128.403;100.708;-357.586;-261.257;;;;
04_S10;04/05/2023;16:19:40.200;-0.7402;0.0771;-0.6885;12.741;651.627;-0.4044;86.113;-375.101;-296.286;;;;
04_S10;04/05/2023;16:19:40.300;-0.6829;0.0603;-0.6973;74.005;510.483;16.174;97.789;-401.372;-316.719;;;;
04_S10;04/05/2023;16:19:40.400;-0.5940;0.1157;-0.7532;-62.485;558.548;106.659;91.951;-445.158;-328.396;;;;
04_S10;04/05/2023;16:19:40.500;-0.5476;0.0986;-0.7893;-119.476;390.320;44.556;84.653;-469.971;-341.531;;;;
04_S10;04/05/2023;16:19:40.600;-0.4885;0.1470;-0.8462;0.4807;291.977;25.940;84.653;-469.971;-341.531;;;;
04_S10;04/05/2023;16:19:40.700;-0.4768;0.0752;-0.8655;58.441;293.961;-53.329;89.032;-480.187;-334.234;;;;
04_S10;04/05/2023;16:19:40.800;-0.4426;0.0618;-0.9048;29.297;334.854;-27.466;89.032;-497.702;-348.829;;;;
04_S10;04/05/2023;16:19:40.900;-0.3384;0.0500;-0.9172;184.097;551.071;-0.5493;96.329;-516.676;-370.722;;;;
04_S10;04/05/2023;16:19:41.000;-0.2422;0.0310;-0.9656;187.912;543.900;-32.272;105.087;-554.624;-376.560;Inactive;0;23.24;
04_S10;04/05/2023;16:19:41.100;-0.2266;0.0369;-0.9468;-73.242;179.520;69.351;105.087;-554.624;-376.560;;;;
04_S10;04/05/2023;16:19:41.200;-0.1948;0.0515;-0.9583;-115.891;209.656;164.719;108.006;-563.381;-370.722;;;;
04_S10;04/05/2023;16:19:41.300;-0.1284;0.0815;-0.9714;-93.155;391.846;31.128;94.870;-585.274;-366.344;;;;
04_S10;04/05/2023;16:19:41.400;-0.1438;0.0833;-0.9546;21.896;-52.643;-75.607;86.113;-582.355;-380.939;;;;
04_S10;04/05/2023;16:19:41.500;-0.0298;0.0383;-0.9773;137.634;679.626;-229.340;86.113;-582.355;-380.939;;;;
04_S10;04/05/2023;16:19:41.600;0.1343;-0.0205;-0.9802;193.634;869.141;-71.793;108.006;-624.681;-370.722;;;;
04_S10;04/05/2023;16:19:41.700;0.2190;0.0098;-0.9355;-0.6104;606.766;34.332;113.844;-668.467;-364.884;;;;
04_S10;04/05/2023;16:19:41.800;0.3330;0.0088;-0.9180;-61.798;817.719;70.038;113.844;-718.092;-329.855;;;;
04_S10;04/05/2023;16:19:41.900;0.4634;0.0088;-0.8689;-39.291;695.114;0.2136;115.303;-760.418;-310.881;;;;
04_S10;04/05/2023;16:19:42.000;0.5686;-0.0034;-0.8262;-84.534;827.103;-48.141;115.303;-760.418;-310.881;Inactive;0;23.22;
04_S10;04/05/2023;16:19:42.100;0.6516;0.0415;-0.7415;37.994;626.755;47.607;106.546;-792.528;-278.771;;;;
04_S10;04/05/2023;16:19:42.200;0.7227;0.0234;-0.6833;-0.0381;555.191;35.324;97.789;-804.204;-246.662;;;;
04_S10;04/05/2023;16:19:42.300;0.7817;0.0259;-0.6069;-34.637;436.630;0.7629;113.844;-826.097;-210.173;;;;
04_S10;04/05/2023;16:19:42.400;0.8411;0.0144;-0.5576;-0.3738;682.449;28.381;106.546;-842.152;-170.766;;;;
04_S10;04/05/2023;16:19:42.500;0.8789;0.0183;-0.4529;-11.520;803.757;20.905;106.546;-842.152;-170.766;;;;
04_S10;04/05/2023;16:19:42.600;0.9587;0.0115;-0.2937;-20.142;814.667;0.7858;125.520;-872.803;-122.601;;;;
04_S10;04/05/2023;16:19:42.700;0.9985;0.0293;-0.1377;-0.9460;1.044.922;-30.518;105.087;-878.641;-70.058;;;;
04_S10;04/05/2023;16:19:42.800;10.122;0.0017;-0.0100;-36.774;635.757;-119.629;112.384;-865.505;-18.974;;;;
04_S10;04/05/2023;16:19:42.900;10.076;0.0422;0.0344;-49.057;214.005;11.978;103.627;-859.667;-10.217;;;;
04_S10;04/05/2023;16:19:43.000;10.002;0.0288;0.0828;-79.956;287.933;26.398;103.627;-859.667;-10.217;Inactive;0;23.25;
04_S10;04/05/2023;16:19:43.100;10.059;0.0300;0.2275;-29.907;738.449;-29.602;113.844;-855.288;17.514;;;;
04_S10;04/05/2023;16:19:43.200;0.9412;0.0283;0.3445;-34.714;1.081.238;0.8621;105.087;-826.097;78.815;;;;
04_S10;04/05/2023;16:19:43.300;0.9207;0.0444;0.4209;54.855;255.280;-55.237;105.087;-799.826;108.006;;;;
04_S10;04/05/2023;16:19:43.400;0.9258;0.0740;0.4539;142.059;146.332;-101.471;86.113;-804.204;100.708;;;;
04_S10;04/05/2023;16:19:43.500;0.9272;0.0681;0.4639;170.898;237.122;-157.318;86.113;-804.204;100.708;;;;
04_S10;04/05/2023;16:19:43.600;0.8796;0.1416;0.5413;54.016;296.402;-184.555;86.113;-783.771;112.384;;;;
04_S10;04/05/2023;16:19:43.700;0.8081;0.1411;0.6152;-62.027;701.294;-41.199;77.355;-757.499;129.899;;;;
04_S10;04/05/2023;16:19:43.800;0.7678;0.1174;0.6985;-124.969;446.472;26.779;74.436;-742.904;156.170;;;;
04_S10;04/05/2023;16:19:43.900;0.7378;0.1204;0.7097;-34.561;278.473;62.256;80.274;-731.228;179.523;;;;
04_S10;04/05/2023;16:19:44.000;0.6980;0.1050;0.7705;-91.248;422.974;62.485;80.274;-731.228;179.523;Inactive;0;23.23;
04_S10;04/05/2023;16:19:44.100;0.6199;0.0884;0.8367;-62.714;611.572;47.607;89.032;-702.037;197.037;;;;
04_S10;04/05/2023;16:19:44.200;0.5061;0.0981;0.8853;71.640;748.291;30.060;83.194;-675.765;197.037;;;;
04_S10;04/05/2023;16:19:44.300;0.4285;0.1106;0.9373;23.727;535.049;14.725;89.032;-634.898;208.714;;;;
04_S10;04/05/2023;16:19:44.400;0.3755;0.1052;0.9846;37.766;394.135;-29.526;74.436;-617.384;214.552;;;;
04_S10;04/05/2023;16:19:44.500;0.2935;0.0999;10.032;-18.997;521.011;-13.809;74.436;-617.384;214.552;;;;
04_S10;04/05/2023;16:19:44.600;0.2004;0.0938;10.227;-63.782;530.396;13.809;94.870;-585.274;214.552;;;;
04_S10;04/05/2023;16:19:44.700;0.1130;0.0798;0.9978;-40.741;647.354;52.032;86.113;-541.488;223.309;;;;
04_S10;04/05/2023;16:19:44.800;0.0161;0.1001;10.522;-0.0687;485.687;29.068;93.410;-528.352;216.011;;;;
04_S10;04/05/2023;16:19:44.900;-0.0701;0.1025;10.203;93.460;544.891;-56.152;75.896;-481.647;189.740;;;;
04_S10;04/05/2023;16:19:45.000;-0.1836;0.1233;10.266;130.157;571.518;-147.171;75.896;-481.647;189.740;Inactive;0;23.27;
04_S10;04/05/2023;16:19:45.100;-0.2598;0.1467;10.049;90.790;516.739;-72.021;87.572;-452.456;189.740;;;;
04_S10;04/05/2023;16:19:45.200;-0.3435;0.1523;0.9656;12.436;726.776;0.0610;71.517;-418.887;162.008;;;;
04_S10;04/05/2023;16:19:45.300;-0.5200;0.1562;0.8447;65.384;1.074.448;-0.2441;84.653;-382.398;119.682;;;;
04_S10;04/05/2023;16:19:45.400;-0.6125;0.1687;0.8003;89.569;683.823;0.6638;75.896;-353.208;84.653;;;;
04_S10;04/05/2023;16:19:45.500;-0.6890;0.1741;0.7512;77.515;728.378;31.128;75.896;-353.208;84.653;;;;
04_S10;04/05/2023;16:19:45.600;-0.8206;0.1914;0.5129;166.168;1.388.245;-0.8698;75.896;-318.179;20.434;;;;
04_S10;04/05/2023;16:19:45.700;-0.9053;0.2197;0.3550;17.014;894.547;-94.986;71.517;-290.448;-56.922;;;;
04_S10;04/05/2023;16:19:45.800;-0.9138;0.1831;0.3452;-107.422;344.543;-66.528;87.572;-291.907;-70.058;;;;
04_S10;04/05/2023;16:19:45.900;-0.9302;0.1553;0.2776;-75.226;544.434;-52.261;87.572;-291.907;-70.058;;;;
04_S10;04/05/2023;16:19:46.000;-0.9670;0.1553;0.1204;50.049;821.381;-42.419;78.815;-303.583;-96.329;Inactive;0;23.28;
04_S10;04/05/2023;16:19:46.100;-0.9497;0.1602;-0.0259;53.101;899.506;-30.518;96.329;-303.583;-154.711;;;;
04_S10;04/05/2023;16:19:46.200;-0.9712;0.1355;-0.2012;73.318;846.176;-39.215;91.951;-319.638;-205.795;;;;
04_S10;04/05/2023;16:19:46.300;-0.8733;0.1338;-0.3052;124.359;987.320;-38.910;112.384;-357.586;-252.500;;;;
04_S10;04/05/2023;16:19:46.400;-0.7942;0.0977;-0.6306;231.323;1.459.198;-105.896;112.384;-357.586;-252.500;;;;
04_S10;04/05/2023;16:19:46.500;-0.7275;0.1047;-0.6223;56.992;387.802;-31.586;100.708;-413.049;-331.315;;;;
04_S10;04/05/2023;16:19:46.600;-0.7537;0.0566;-0.6238;-26.245;62.790;-51.956;113.844;-411.589;-326.936;;;;
04_S10;04/05/2023;16:19:46.700;-0.7241;0.0884;-0.6230;-51.346;161.514;-0.9995;106.546;-421.806;-328.396;;;;
04_S10;04/05/2023;16:19:46.800;-0.6951;0.0959;-0.6765;-140.457;283.585;15.106;99.248;-440.780;-338.612;;;;
04_S10;04/05/2023;16:19:46.900;-0.6865;0.1011;-0.7776;-133.362;241.623;23.422;99.248;-440.780;-338.612;;;;
04_S10;04/05/2023;16:19:47.000;-0.6240;0.1104;-0.7285;-143.890;317.001;-19.760;97.789;-445.158;-340.072;Inactive;0;23.29;
04_S10;04/05/2023;16:19:47.100;-0.5632;0.1130;-0.7949;-91.934;649.414;-136.719;97.789;-477.268;-337.153;;;;
04_S10;04/05/2023;16:19:47.200;-0.4233;0.1404;-0.8816;-99.487;752.869;-95.825;84.653;-519.595;-347.370;;;;
04_S10;04/05/2023;16:19:47.300;-0.3220;0.1150;-0.9199;-54.016;892.258;-73.700;94.870;-550.245;-357.586;;;;
04_S10;04/05/2023;16:19:47.400;-0.1875;0.1426;-0.9497;-0.0992;763.397;-44.022;94.870;-550.245;-357.586;;;;
04_S10;04/05/2023;16:19:47.500;-0.0952;0.1187;-0.9771;39.825;537.338;-25.101;93.410;-583.814;-367.803;;;;
04_S10;04/05/2023;16:19:47.600;-0.0337;0.0898;-0.9617;89.493;417.709;-31.586;87.572;-615.924;-370.722;;;;
04_S10;04/05/2023;16:19:47.700;0.0439;0.0779;-0.9868;150.757;404.968;-12.131;106.546;-640.736;-354.667;;;;
04_S10;04/05/2023;16:19:47.800;0.0920;0.0664;-0.9819;44.327;354.767;14.801;106.546;-658.251;-363.424;;;;
04_S10;04/05/2023;16:19:47.900;0.1350;0.0588;-0.9749;-0.4044;223.846;31.815;106.546;-658.251;-363.424;;;;
04_S10;04/05/2023;16:19:48.000;0.1831;0.0640;-0.9492;18.692;312.042;18.387;100.708;-664.089;-354.667;Inactive;0;23.29;
04_S10;04/05/2023;16:19:48.100;0.2817;0.0627;-0.9412;-96.054;725.327;-59.357;100.708;-710.794;-325.477;;;;
04_S10;04/05/2023;16:19:48.200;0.4016;0.0647;-0.9031;27.695;602.341;-39.749;96.329;-732.687;-306.503;;;;
04_S10;04/05/2023;16:19:48.300;0.4858;0.0708;-0.8433;13.657;713.272;-69.885;94.870;-772.095;-281.690;;;;
04_S10;04/05/2023;16:19:48.400;0.5869;0.0869;-0.7729;42.877;815.735;-17.853;94.870;-772.095;-281.690;;;;
04_S10;04/05/2023;16:19:48.500;0.7209;0.0334;-0.7107;-36.240;637.817;106.125;97.789;-807.123;-252.500;;;;
04_S10;04/05/2023;16:19:48.600;0.7639;0.0500;-0.6509;-0.4501;523.682;40.588;93.410;-831.936;-213.092;;;;
04_S10;04/05/2023;16:19:48.700;0.8203;0.0593;-0.5815;-13.351;579.071;-50.735;100.708;-839.233;-176.604;;;;
04_S10;04/05/2023;16:19:48.800;0.8586;0.0889;-0.4963;-63.553;437.088;-41.046;93.410;-846.531;-163.468;;;;
04_S10;04/05/2023;16:19:48.900;0.9124;0.0989;-0.3884;-95.367;596.008;-85.220;93.410;-846.531;-163.468;;;;
04_S10;04/05/2023;16:19:49.000;0.9355;0.1201;-0.2944;-27.771;889.740;-84.457;90.491;-840.693;-122.601;Inactive;0;23.32;
04_S10;04/05/2023;16:19:49.100;0.9968;0.1106;-0.1467;-0.0229;753.250;-58.212;84.653;-846.531;-75.896;;;;
04_S10;04/05/2023;16:19:49.200;10.095;0.1230;0.0049;31.128;968.781;-54.626;91.951;-836.314;-16.055;;;;
04_S10;04/05/2023;16:19:49.300;0.9983;0.1257;0.1445;20.218;801.697;-48.294;77.355;-830.476;33.569;;;;
04_S10;04/05/2023;16:19:49.400;0.9868;0.1367;0.2642;0.7477;688.553;-27.618;77.355;-830.476;33.569;;;;
04_S10;04/05/2023;16:19:49.500;0.9380;0.1526;0.3616;23.956;701.218;-34.103;81.734;-805.664;75.896;;;;
04_S10;04/05/2023;16:19:49.600;0.8896;0.1594;0.4700;22.125;676.270;-56.915;75.896;-785.230;116.763;;;;
04_S10;04/05/2023;16:19:49.700;0.8623;0.1470;0.6003;26.169;736.389;-129.929;71.517;-754.580;124.061;;;;
04_S10;04/05/2023;16:19:49.800;0.6907;0.2227;0.7097;39.215;1.252.899;-210.190;52.543;-680.144;163.468;;;;
04_S10;04/05/2023;16:19:49.900;0.4629;0.2449;0.8250;56.381;1.322.250;-119.629;52.543;-680.144;163.468;;;;
04_S10;04/05/2023;16:19:50.000;0.4099;0.2583;0.8801;30.670;375.671;108.795;46.705;-615.924;183.902;Inactive;0;23.31;
04_S10;04/05/2023;16:19:50.100;0.3887;0.2510;0.7998;-128.937;92.545;404.129;61.301;-630.520;175.144;;;;
04_S10;04/05/2023;16:19:50.200;0.4224;0.1240;0.7793;-234.222;364.609;538.025;75.896;-645.115;201.416;;;;
04_S10;04/05/2023;16:19:50.300;0.3345;-0.0408;10.598;-192.490;818.024;424.271;75.896;-645.115;201.416;;;;
04_S10;04/05/2023;16:19:50.400;0.2524;-0.0554;11.899;-129.929;496.216;209.198;83.194;-617.384;229.147;;;;
04_S10;04/05/2023;16:19:50.500;0.1350;0.0667;10.422;139.160;299.759;-54.245;90.491;-601.329;227.688;;;;
04_S10;04/05/2023;16:19:50.600;0.1221;0.0632;10.825;131.683;244.675;-65.918;75.896;-569.219;218.930;;;;
04_S10;04/05/2023;16:19:50.700;0.1035;0.0691;10.476;200.195;191.727;-153.198;67.139;-563.381;195.578;;;;
04_S10;04/05/2023;16:19:50.800;0.0913;0.1475;10.352;148.926;-35.782;-166.626;67.139;-563.381;195.578;;;;
04_S10;04/05/2023;16:19:50.900;0.1228;0.1235;11.216;-174.789;-82.626;21.286;54.003;-547.326;199.956;;;;
04_S10;04/05/2023;16:19:51.000;0.1494;0.0640;11.099;-13.885;196.304;-21.896;70.058;-554.624;207.254;Inactive;0;23.31;
04_S10;04/05/2023;16:19:51.100;0.0266;0.1631;10.305;253.983;377.197;-27.847;55.462;-534.190;186.821;;;;
04_S10;04/05/2023;16:19:51.200;0.0330;-0.0193;10.254;-746.536;21.515;0.6790;96.329;-537.109;224.769;;;;
04_S10;04/05/2023;16:19:51.300;0.0239;-0.0005;10.422;-155.640;18.158;29.373;96.329;-537.109;224.769;;;;
04_S10;04/05/2023;16:19:51.400;0.0295;0.0127;10.420;-15.259;19.684;79.880;99.248;-540.028;227.688;;;;
04_S10;04/05/2023;16:19:51.500;0.0271;0.0144;10.425;-10.071;20.218;0.9460;90.491;-537.109;239.364;;;;
04_S10;04/05/2023;16:19:51.600;0.0847;0.0854;10.405;-18.616;21.591;-473.709;91.951;-535.650;223.309;;;;
04_S10;04/05/2023;16:19:51.700;-0.0093;-0.0940;10.469;-36.850;25.253;-1.502.914;112.384;-459.754;234.985;;;;
04_S10;04/05/2023;16:19:51.800;0.0178;-0.0122;10.413;-23.880;23.041;-768.661;112.384;-459.754;234.985;;;;
04_S10;04/05/2023;16:19:51.900;0.0256;0.0034;10.417;-17.471;21.896;-446.167;137.196;-434.942;227.688;;;;
04_S10;04/05/2023;16:19:52.000;0.0522;0.0378;10.422;-20.599;21.896;-620.041;147.413;-415.968;234.985;Inactive;0;23.32;
04_S10;04/05/2023;16:19:52.100;-0.0020;-0.0669;10.447;-30.212;23.499;-1.210.251;191.199;-386.777;223.309;;;;
04_S10;04/05/2023;16:19:52.200;0.0330;0.0088;10.410;-22.507;23.270;-755.081;218.930;-359.046;230.607;;;;
04_S10;04/05/2023;16:19:52.300;-0.0217;0.1333;10.476;-22.354;22.583;-783.005;218.930;-359.046;230.607;;;;
04_S10;04/05/2023;16:19:52.400;0.0710;0.0039;10.430;-36.163;24.872;-1.447.144;272.933;-357.586;234.985;;;;
04_S10;04/05/2023;16:19:52.500;0.0273;0.0007;10.442;-26.093;22.964;-911.179;329.855;-341.531;230.607;;;;
04_S10;04/05/2023;16:19:52.600;-0.0066;-0.0540;10.447;-22.278;23.270;-689.545;370.722;-353.208;239.364;;;;
04_S10;04/05/2023;16:19:52.700;0.0127;-0.0073;10.425;-14.191;20.981;-247.040;378.020;-351.748;243.743;;;;
04_S10;04/05/2023;16:19:52.800;0.0278;-0.0132;10.413;-10.376;20.523;-25.177;378.020;-351.748;243.743;;;;
04_S10;04/05/2023;16:19:52.900;0.0491;-0.0044;10.444;-24.261;22.812;-851.059;375.101;-351.748;252.500;;;;
04_S10;04/05/2023;16:19:53.000;0.0042;0.0342;10.413;-35.477;24.414;-1.412.888;439.320;-375.101;237.904;Inactive;0;23.3;
04_S10;04/05/2023;16:19:53.100;0.0229;-0.0042;10.425;-19.379;21.744;-545.959;474.349;-410.130;237.904;;;;
04_S10;04/05/2023;16:19:53.200;0.0137;-0.0269;10.435;-22.278;22.659;-662.231;491.864;-439.320;246.662;;;;
04_S10;04/05/2023;16:19:53.300;0.0215;-0.0381;10.393;-31.662;24.796;-1.261.673;491.864;-439.320;246.662;;;;
04_S10;04/05/2023;16:19:53.400;0.0332;-0.0598;10.422;-28.305;23.804;-1.043.091;515.216;-491.864;234.985;;;;
04_S10;04/05/2023;16:19:53.500;0.0266;0.0571;10.403;-21.286;22.202;-671.005;528.352;-531.271;242.283;;;;
04_S10;04/05/2023;16:19:53.600;0.0696;-0.0505;10.422;-30.441;23.651;-1.204.529;538.569;-591.112;246.662;;;;
04_S10;04/05/2023;16:19:53.700;-0.0015;-0.0032;10.425;-32.730;24.033;-1.333.771;538.569;-591.112;246.662;;;;
04_S10;04/05/2023;16:19:53.800;0.0374;0.0190;10.425;-29.984;24.185;-1.110.001;515.216;-652.413;237.904;;;;
04_S10;04/05/2023;16:19:53.900;0.0388;-0.0105;10.452;-36.926;25.024;-1.562.042;496.242;-726.849;239.364;;;;
04_S10;04/05/2023;16:19:54.000;0.0291;-0.0171;10.417;-32.730;23.956;-1.311.188;434.942;-767.716;230.607;Inactive;0;23.33;
04_S10;04/05/2023;16:19:54.100;0.0398;0.0146;10.425;-24.109;22.736;-802.078;395.534;-786.690;234.985;;;;
04_S10;04/05/2023;16:19:54.200;0.0181;0.0205;10.422;-30.136;23.651;-1.123.886;395.534;-786.690;234.985;;;;
04_S10;04/05/2023;16:19:54.300;0.0928;0.0076;10.410;-38.910;25.787;-1.587.524;334.234;-807.123;229.147;;;;
04_S10;04/05/2023;16:19:54.400;0.0312;-0.0259;10.444;-34.561;25.177;-1.423.035;258.338;-798.366;229.147;;;;
04_S10;04/05/2023;16:19:54.500;0.0400;0.0056;10.430;-25.558;23.422;-867.004;211.633;-789.609;217.471;;;;
04_S10;04/05/2023;16:19:54.600;0.0342;0.0081;10.425;-25.253;22.736;-890.121;164.928;-757.499;232.066;;;;
04_S10;04/05/2023;16:19:54.700;0.0107;-0.0081;10.430;-27.084;23.117;-945.663;164.928;-757.499;232.066;;;;
04_S10;04/05/2023;16:19:54.800;0.0229;-0.0229;10.413;-17.700;21.744;-435.638;134.277;-726.849;233.526;;;;
04_S10;04/05/2023;16:19:54.900;0.0417;0.0210;10.405;-15.411;21.133;-280.762;140.115;-718.092;233.526;;;;
04_S10;04/05/2023;16:19:55.000;0.0408;-0.0183;10.420;-23.270;22.964;-745.926;121.141;-693.280;232.066;Inactive;0;23.33;
04_S10;04/05/2023;16:19:55.100;0.0271;0.0095;10.427;-23.804;22.583;-825.195;112.384;-652.413;223.309;;;;
04_S10;04/05/2023;16:19:55.200;0.0173;0.0393;10.398;-29.678;23.499;-1.090.851;112.384;-652.413;223.309;;;;
04_S10;04/05/2023;16:19:55.300;0.0261;0.0078;10.439;-33.798;24.338;-1.372.528;86.113;-602.788;229.147;;;;
04_S10;04/05/2023;16:19:55.400;0.0525;-0.0063;10.435;-33.646;24.643;-1.337.051;84.653;-537.109;221.849;;;;
04_S10;04/05/2023;16:19:55.500;0.0408;0.0027;10.420;-30.518;23.499;-1.149.445;109.465;-486.025;223.309;;;;
04_S10;04/05/2023;16:19:55.600;0.0271;0.0012;10.432;-26.245;23.270;-939.255;131.358;-449.537;230.607;;;;
04_S10;04/05/2023;16:19:55.700;0.0208;-0.0134;10.413;-25.024;23.346;-874.023;131.358;-449.537;230.607;;;;
04_S10;04/05/2023;16:19:55.800;0.0234;0.0200;10.427;-30.441;24.567;-1.137.772;157.630;-420.346;239.364;;;;
04_S10;04/05/2023;16:19:55.900;0.0229;0.0024;10.422;-36.011;24.567;-1.459.045;201.416;-364.884;224.769;;;;
04_S10;04/05/2023;16:19:56.000;0.0283;0.0044;10.430;-36.469;25.406;-1.562.119;277.312;-356.127;227.688;Inactive;0;23.37;
04_S10;04/05/2023;16:19:56.100;0.0305;-0.0615;10.430;-34.943;24.643;-1.440.964;342.991;-345.910;226.228;;;;
04_S10;04/05/2023;16:19:56.200;-0.0093;0.0012;10.425;-26.169;23.041;-943.985;342.991;-345.910;226.228;;;;
04_S10;04/05/2023;16:19:56.300;0.0190;0.0234;10.427;-26.703;23.117;-973.663;395.534;-354.667;240.823;;;;
04_S10;04/05/2023;16:19:56.400;0.0417;-0.0046;10.420;-31.281;23.727;-1.239.090;442.239;-395.534;232.066;;;;
04_S10;04/05/2023;16:19:56.500;0.0332;-0.0076;10.415;-24.338;22.507;-797.806;467.052;-411.589;227.688;;;;
04_S10;04/05/2023;16:19:56.600;0.0696;0.0549;10.410;-21.057;22.430;-602.341;480.187;-450.997;240.823;;;;
04_S10;04/05/2023;16:19:56.700;0.0420;0.0166;10.408;-27.618;22.888;-937.576;480.187;-450.997;240.823;;;;
04_S10;04/05/2023;16:19:56.800;0.0127;-0.0698;10.393;-35.400;25.330;-1.465.378;523.973;-486.025;234.985;;;;
04_S10;04/05/2023;16:19:56.900;0.0234;-0.0164;10.420;-28.076;23.804;-1.073.380;535.650;-564.840;226.228;;;;
04_S10;04/05/2023;16:19:57.000;-0.0908;-0.0271;10.437;-21.591;22.354;-613.861;544.407;-596.950;234.985;Inactive;0;23.38;
04_S10;04/05/2023;16:19:57.100;0.1299;0.0959;10.396;-20.447;21.896;-581.970;532.731;-629.060;246.662;;;;
04_S10;04/05/2023;16:19:57.200;0.0613;0.0056;10.422;-24.414;22.659;-833.359;532.731;-629.060;246.662;;;;
04_S10;04/05/2023;16:19:57.300;0.0078;0.0261;10.430;-28.992;23.499;-1.079.178;513.757;-677.225;242.283;;;;
04_S10;04/05/2023;16:19:57.400;0.0667;-0.0330;10.430;-37.079;24.567;-1.504.898;478.728;-726.849;242.283;;;;
04_S10;04/05/2023;16:19:57.500;0.0261;0.0513;10.403;-28.992;23.117;-1.064.301;424.725;-772.095;237.904;;;;
04_S10;04/05/2023;16:19:57.600;0.0266;0.0078;10.439;-38.071;25.177;-1.541.977;351.748;-789.609;232.066;;;;
04_S10;04/05/2023;16:19:57.700;0.0378;-0.0132;10.410;-33.646;24.643;-1.313.705;351.748;-789.609;232.066;;;;
04_S10;04/05/2023;16:19:57.800;0.0703;-0.0007;10.415;-23.270;23.117;-768.051;300.664;-802.745;227.688;;;;
04_S10;04/05/2023;16:19:57.900;0.0378;0.0081;10.425;-18.921;22.812;-512.009;271.474;-799.826;233.526;;;;
04_S10;04/05/2023;16:19:58.000;0.0168;-0.0088;10.422;-17.853;22.049;-446.472;243.743;-789.609;234.985;Inactive;0;23.35;
04_S10;04/05/2023;16:19:58.100;0.0212;-0.0054;10.425;-21.439;22.202;-630.798;243.743;-789.609;234.985;;;;
04_S10;04/05/2023;16:19:58.200;0.0105;0.0220;10.413;-22.507;23.270;-733.261;218.930;-773.554;221.849;;;;
04_S10;04/05/2023;16:19:58.300;0.0493;0.0127;10.444;-29.526;23.422;-1.178.970;188.280;-760.418;232.066;;;;
04_S10;04/05/2023;16:19:58.400;0.0725;-0.0449;10.437;-27.771;22.736;-1.060.486;138.656;-716.632;220.390;;;;
04_S10;04/05/2023;16:19:58.500;0.0386;-0.0029;10.439;-20.523;21.973;-600.357;112.384;-696.199;234.985;;;;
04_S10;04/05/2023;16:19:58.600;0.0764;0.0063;10.435;-22.354;22.278;-678.787;112.384;-696.199;234.985;;;;
04_S10;04/05/2023;16:19:58.700;0.0024;-0.0176;10.420;-24.261;22.125;-766.449;103.627;-661.170;223.309;;;;
04_S10;04/05/2023;16:19:58.800;0.0212;-0.0046;10.405;-19.913;21.286;-519.638;89.032;-623.222;232.066;;;;
04_S10;04/05/2023;16:19:58.900;0.0195;0.0020;10.432;-21.439;21.210;-629.120;89.032;-611.546;229.147;;;;
04_S10;04/05/2023;16:19:59.000;0.0312;0.0474;10.459;-19.226;21.973;-533.524;93.410;-586.733;233.526;Inactive;0;23.36;
04_S10;04/05/2023;16:19:59.100;0.0562;0.0085;10.439;-27.466;23.499;-988.693;93.410;-586.733;233.526;;;;
04_S10;04/05/2023;16:19:59.200;0.0405;-0.0330;10.417;-29.602;23.880;-1.070.099;94.870;-538.569;232.066;;;;
04_S10;04/05/2023;16:19:59.300;0.0330;0.0686;10.403;-26.398;23.346;-889.664;105.087;-490.404;227.688;;;;
04_S10;04/05/2023;16:19:59.400;0.0339;0.0073;10.415;-37.613;24.567;-1.487.579;140.115;-432.023;227.688;;;;
04_S10;04/05/2023;16:19:59.500;0.0488;-0.0156;10.408;-37.231;25.253;-1.607.590;191.199;-386.777;220.390;;;;
04_S10;04/05/2023;16:19:59.600;0.0273;-0.0178;10.400;-25.177;23.117;-891.724;191.199;-386.777;220.390;;;;
04_S10;04/05/2023;16:19:59.700;0.0222;-0.0029;10.417;-23.575;22.812;-776.215;220.390;-378.020;234.985;;;;
04_S10;04/05/2023;16:19:59.800;0.0098;0.0537;10.415;-25.940;23.117;-831.451;271.474;-353.208;242.283;;;;
04_S10;04/05/2023;16:19:59.900;0.0415;-0.0161;10.430;-30.365;23.880;-1.155.853;307.962;-340.072;234.985;;;;
04_S10;04/05/2023;16:20:00.000;0.0178;-0.0188;10.420;-22.888;23.041;-759.888;347.370;-353.208;236.445;Inactive;0;23.38;
04_S10;04/05/2023;16:20:00.100;0.0288;0.0066;10.417;-16.937;21.820;-395.508;347.370;-353.208;236.445;;;;
04_S10;04/05/2023;16:20:00.200;0.0076;0.0295;10.430;-20.218;21.896;-581.360;372.182;-366.344;249.581;;;;
04_S10;04/05/2023;16:20:00.300;0.0156;0.0122;10.417;-31.052;24.490;-1.198.807;417.427;-370.722;239.364;;;;
04_S10;04/05/2023;16:20:00.400;0.0332;-0.0161;10.405;-31.967;23.575;-1.219.711;468.511;-410.130;234.985;;;;
04_S10;04/05/2023;16:20:00.500;0.0239;-0.0176;10.420;-19.073;21.439;-480.576;481.647;-420.346;233.526;;;;
04_S10;04/05/2023;16:20:00.600;0.0195;0.0332;10.432;-15.259;21.820;-266.647;481.647;-420.346;233.526;;;;
04_S10;04/05/2023;16:20:00.700;0.0359;-0.0156;10.413;-28.534;22.888;-1.025.848;494.783;-439.320;232.066;;;;
04_S10;04/05/2023;16:20:00.800;0.0491;-0.0164;10.425;-23.575;22.888;-794.983;515.216;-483.106;243.743;;;;
04_S10;04/05/2023;16:20:00.900;0.0293;0.0391;10.439;-18.463;21.820;-507.736;532.731;-515.216;246.662;;;;
04_S10;04/05/2023;16:20:01.000;0.0366;0.0088;10.457;-27.924;23.651;-988.846;532.731;-579.436;246.662;Inactive;0;23.36;
04_S10;04/05/2023;16:20:01.100;0.0229;-0.0173;10.442;-35.782;24.414;-1.463.394;532.731;-579.436;246.662;;;;
04_S10;04/05/2023;16:20:01.200;0.0386;0.0093;10.400;-28.687;23.575;-1.048.203;534.190;-636.358;248.121;;;;
04_S10;04/05/2023;16:20:01.300;0.0369;-0.0134;10.430;-29.373;23.270;-1.107.941;507.919;-697.658;248.121;;;;
04_S10;04/05/2023;16:20:01.400;0.0383;-0.0105;10.454;-31.128;23.956;-1.190.262;469.971;-747.282;242.283;;;;
04_S10;04/05/2023;16:20:01.500;0.0247;0.0237;10.425;-31.662;23.956;-1.158.447;469.971;-747.282;242.283;;;;
04_S10;04/05/2023;16:20:01.600;0.0376;-0.0210;10.437;-36.697;24.948;-1.405.640;469.971;-747.282;242.283;;;;
04_S10;04/05/2023;16:20:01.700;0.0352;-0.0068;10.427;-34.790;25.253;-1.401.978;344.450;-799.826;239.364;;;;
04_S10;04/05/2023;16:20:01.800;0.0449;-0.0022;10.420;-28.229;24.185;-1.068.039;284.610;-792.528;229.147;;;;
04_S10;04/05/2023;16:20:01.900;0.0466;0.0476;10.422;-22.278;22.736;-709.229;259.797;-793.988;239.364;;;;
04_S10;04/05/2023;16:20:02.000;0.0518;-0.0496;10.413;-28.305;23.193;-1.091.232;259.797;-793.988;239.364;Inactive;0;23.41;
04_S10;04/05/2023;16:20:02.100;0.0396;-0.0090;10.417;-19.760;21.820;-548.248;199.956;-780.852;223.309;;;;
04_S10;04/05/2023;16:20:02.200;0.0481;0.0249;10.454;-19.836;22.430;-595.169;182.442;-760.418;232.066;;;;
04_S10;04/05/2023;16:20:02.300;0.0203;-0.0337;10.454;-25.940;23.956;-905.151;147.413;-725.389;226.228;;;;
04_S10;04/05/2023;16:20:02.400;0.0215;-0.0132;10.422;-17.471;21.591;-433.502;131.358;-721.011;239.364;;;;
04_S10;04/05/2023;16:20:02.500;0.0288;0.0054;10.417;-15.640;20.905;-323.563;131.358;-721.011;239.364;;;;
04_S10;04/05/2023;16:20:02.600;0.0466;0.0068;10.430;-22.049;22.049;-661.926;122.601;-703.496;233.526;;;;
04_S10;04/05/2023;16:20:02.700;0.0251;0.0156;10.415;-23.193;21.973;-738.678;108.006;-683.063;224.769;;;;
04_S10;04/05/2023;16:20:02.800;0.0278;0.0066;10.432;-14.648;20.905;-268.173;93.410;-659.710;227.688;;;;
04_S10;04/05/2023;16:20:02.900;0.0242;0.0139;10.430;-14.725;20.752;-233.459;115.303;-637.817;223.309;;;;
04_S10;04/05/2023;16:20:03.000;-0.0005;0.0471;10.408;-20.065;21.591;-524.063;115.303;-637.817;223.309;Inactive;0;23.39;
04_S10;04/05/2023;16:20:03.100;0.0354;0.0173;10.427;-29.144;23.117;-1.041.794;90.491;-607.167;236.445;;;;
04_S10;04/05/2023;16:20:03.200;0.0264;-0.0310;10.425;-30.670;23.651;-1.171.494;80.274;-567.760;220.390;;;;
04_S10;04/05/2023;16:20:03.300;0.0488;0.0527;10.408;-30.899;23.727;-1.142.273;99.248;-522.514;224.769;;;;
04_S10;04/05/2023;16:20:03.400;0.0427;0.0127;10.442;-35.782;24.033;-1.411.362;128.439;-446.618;221.849;;;;
04_S10;04/05/2023;16:20:03.500;0.0486;-0.0110;10.430;-32.654;24.643;-1.329.269;128.439;-446.618;221.849;;;;
04_S10;04/05/2023;16:20:03.600;0.0183;-0.0334;10.410;-26.932;23.422;-1.006.241;162.008;-401.372;223.309;;;;
04_S10;04/05/2023;16:20:03.700;0.0327;0.0505;10.432;-21.515;22.125;-678.101;191.199;-383.858;226.228;;;;
04_S10;04/05/2023;16:20:03.800;0.0454;0.0132;10.466;-40.970;25.482;-1.755.829;251.040;-356.127;224.769;;;;
04_S10;04/05/2023;16:20:03.900;0.0210;0.0244;10.437;-32.730;24.948;-1.322.021;322.557;-345.910;232.066;;;;
04_S10;04/05/2023;16:20:04.000;0.0430;-0.0186;10.413;-28.687;23.880;-1.103.592;322.557;-345.910;232.066;Inactive;0;23.39;
04_S10;04/05/2023;16:20:04.100;0.0334;0.0154;10.449;-29.526;23.117;-1.135.178;369.263;-357.586;232.066;;;;
04_S10;04/05/2023;16:20:04.200;0.0476;-0.0063;10.430;-31.509;23.575;-1.213.837;440.780;-394.075;236.445;;;;
04_S10;04/05/2023;16:20:04.300;0.0273;0.0442;10.437;-21.973;22.049;-642.090;471.430;-415.968;229.147;;;;
04_S10;04/05/2023;16:20:04.400;0.0381;0.0051;10.444;-29.221;23.422;-996.323;500.621;-445.158;243.743;;;;
04_S10;04/05/2023;16:20:04.500;0.0427;-0.0977;10.415;-31.738;24.033;-1.233.826;500.621;-445.158;243.743;;;;
04_S10;04/05/2023;16:20:04.600;0.0247;-0.0403;10.415;-21.057;22.583;-654.068;531.271;-493.323;239.364;;;;
04_S10;04/05/2023;16:20:04.700;0.0405;0.0200;10.376;-25.635;22.888;-886.612;529.812;-518.135;243.743;;;;
04_S10;04/05/2023;16:20:04.800;0.0063;-0.0134;10.439;-34.485;24.338;-1.371.307;535.650;-605.707;249.581;;;;
04_S10;04/05/2023;16:20:04.900;0.0359;0.0020;10.413;-26.474;23.193;-955.734;534.190;-653.872;239.364;;;;
04_S10;04/05/2023;16:20:05.000;0.0454;0.0022;10.388;-31.738;24.414;-1.232.758;534.190;-653.872;239.364;Inactive;0;23.39;
04_S10;04/05/2023;16:20:05.100;0.0317;-0.0110;10.437;-38.528;26.016;-1.614.532;494.783;-707.875;246.662;;;;
04_S10;04/05/2023;16:20:05.200;0.0376;-0.0029;10.417;-33.340;23.651;-1.334.152;439.320;-760.418;232.066;;;;
04_S10;04/05/2023;16:20:05.300;0.0388;-0.0068;10.420;-23.193;22.659;-705.032;394.075;-782.311;239.364;;;;
04_S10;04/05/2023;16:20:05.400;0.0483;-0.0112;10.398;-23.575;22.583;-725.250;356.127;-788.149;233.526;;;;
04_S10;04/05/2023;16:20:05.500;0.0400;0.0010;10.405;-27.084;23.575;-969.849;356.127;-788.149;233.526;;;;
04_S10;04/05/2023;16:20:05.600;0.0342;0.0269;10.398;-24.643;23.117;-838.318;302.124;-807.123;252.500;;;;
04_S10;04/05/2023;16:20:05.700;0.0679;0.0259;10.410;-18.768;21.820;-494.385;268.555;-793.988;236.445;;;;
04_S10;04/05/2023;16:20:05.800;0.0295;-0.0085;10.439;-20.599;23.041;-591.888;258.338;-795.447;243.743;;;;
04_S10;04/05/2023;16:20:05.900;0.0359;0.0232;10.410;-18.387;22.430;-501.938;258.338;-795.447;243.743;;;;
04_S10;04/05/2023;16:20:06.000;0.0383;-0.0129;10.420;-25.406;22.964;-911.407;237.904;-783.771;237.904;Inactive;0;23.37;
04_S10;04/05/2023;16:20:06.100;0.0361;-0.0203;10.413;-23.346;22.049;-733.337;182.442;-769.175;229.147;;;;
04_S10;04/05/2023;16:20:06.200;0.0486;0.0129;10.437;-17.548;21.439;-441.055;153.251;-748.742;223.309;;;;
04_S10;04/05/2023;16:20:06.300;0.0056;0.0151;10.417;-25.406;23.575;-932.159;129.899;-722.470;240.823;;;;
04_S10;04/05/2023;16:20:06.400;0.0220;0.0146;10.408;-30.746;23.804;-1.180.496;129.899;-722.470;240.823;;;;
04_S10;04/05/2023;16:20:06.500;0.0647;0.0225;10.420;-23.651;21.973;-792.313;112.384;-675.765;223.309;;;;
04_S10;04/05/2023;16:20:06.600;-0.0151;-0.0759;10.449;-24.414;22.202;-794.601;99.248;-645.115;230.607;;;;
04_S10;04/05/2023;16:20:06.700;0.0503;0.0342;10.417;-30.746;23.346;-1.158.447;83.194;-594.031;226.228;;;;
04_S10;04/05/2023;16:20:06.800;0.0288;0.0361;10.442;-20.828;22.507;-600.433;80.274;-559.002;229.147;;;;
04_S10;04/05/2023;16:20:06.900;0.0186;-0.0146;10.422;-20.828;22.507;-611.877;80.274;-559.002;229.147;;;;
04_S10;04/05/2023;16:20:07.000;-0.0100;0.0349;10.427;-22.812;22.888;-726.013;94.870;-529.812;232.066;Inactive;0;23.41;
04_S10;04/05/2023;16:20:07.100;0.0447;-0.0059;10.410;-24.414;22.430;-802.307;99.248;-490.404;230.607;;;;
04_S10;04/05/2023;16:20:07.200;0.0325;-0.0627;10.437;-12.054;20.752;-146.866;99.248;-472.890;233.526;;;;
04_S10;04/05/2023;16:20:07.300;0.0476;0.0879;10.420;-16.098;20.447;-351.105;116.763;-467.052;227.688;;;;
04_S10;04/05/2023;16:20:07.400;0.0330;-0.0066;10.403;-0.8087;-51.193;109.940;116.763;-467.052;227.688;;;;
04_S10;04/05/2023;16:20:07.500;0.0732;0.0103;10.269;-40.436;-151.596;-28.229;113.844;-469.971;227.688;;;;
04_S10;04/05/2023;16:20:07.600;0.1101;0.0146;11.011;-311.737;-53.635;-148.544;131.358;-469.971;230.607;;;;
04_S10;04/05/2023;16:20:07.700;0.0669;-0.2070;10.339;-803.680;94.681;-311.432;164.928;-480.187;261.257;;;;
04_S10;04/05/2023;16:20:07.800;0.0415;-0.3337;10.005;-987.015;238.800;-113.983;242.283;-440.780;274.393;;;;
04_S10;04/05/2023;16:20:07.900;-0.0156;-0.4482;0.9338;-692.444;304.108;75.302;242.283;-440.780;274.393;;;;
04_S10;04/05/2023;16:20:08.000;-0.0833;-0.6006;0.8367;-724.030;371.857;196.152;290.448;-433.482;272.933;Inactive;0;23.43;
04_S10;04/05/2023;16:20:08.100;-0.2021;-0.7417;0.7681;-1.044.769;454.025;511.856;351.748;-410.130;267.095;;;;
04_S10;04/05/2023;16:20:08.200;-0.3330;-0.7664;0.5710;-1.301.956;587.311;727.692;404.291;-363.424;220.390;;;;
04_S10;04/05/2023;16:20:08.300;-0.4250;-0.7842;0.3550;-1.302.414;625.916;513.382;437.861;-315.260;143.035;;;;
04_S10;04/05/2023;16:20:08.400;-0.4966;-0.7935;0.0950;-1.247.787;690.994;288.773;437.861;-315.260;143.035;;;;
04_S10;04/05/2023;16:20:08.500;-0.5168;-0.7458;-0.1646;-1.341.095;700.760;399.017;480.187;-284.610;45.246;;;;
04_S10;04/05/2023;16:20:08.600;-0.4883;-0.7100;-0.3735;-906.906;844.345;-54.245;471.430;-264.176;-24.812;;;;
04_S10;04/05/2023;16:20:08.700;-0.3484;-0.6670;-0.8674;-1.306.000;1.908.112;-279.236;499.161;-297.745;-178.063;;;;
04_S10;04/05/2023;16:20:08.800;-0.1023;-0.5159;-0.8328;-875.549;834.885;-247.955;480.187;-331.315;-278.771;;;;
04_S10;04/05/2023;16:20:08.900;-0.0083;-0.4460;-0.8596;-417.633;790.024;-252.457;480.187;-331.315;-278.771;;;;
04_S10;04/05/2023;16:20:09.000;0.1013;-0.4136;-0.8750;-265.198;995.560;-49.744;475.809;-385.318;-321.098;Inactive;0;23.43;
04_S10;04/05/2023;16:20:09.100;0.2471;-0.4199;-0.8264;-88.730;904.694;41.122;462.673;-427.644;-360.505;;;;
04_S10;04/05/2023;16:20:09.200;0.4500;-0.3516;-0.7981;-438.385;1.062.088;0.5341;437.861;-493.323;-385.318;;;;
04_S10;04/05/2023;16:20:09.300;0.6228;-0.2344;-0.7522;-574.265;1.239.624;-25.253;404.291;-594.031;-413.049;;;;
04_S10;04/05/2023;16:20:09.400;0.7776;-0.1218;-0.6479;-612.640;1.430.435;-330.200;404.291;-594.031;-413.049;;;;
04_S10;04/05/2023;16:20:09.500;0.9207;0.0024;-0.4248;-511.322;1.248.550;-670.853;332.774;-700.577;-399.913;;;;
04_S10;04/05/2023;16:20:09.600;0.9456;0.0752;-0.2791;-358.047;873.108;-484.772;278.771;-769.175;-351.748;;;;
04_S10;04/05/2023;16:20:09.700;0.9741;0.1736;-0.1436;-275.650;786.362;-366.669;251.040;-820.259;-326.936;;;;
04_S10;04/05/2023;16:20:09.800;0.9780;0.2434;0.0186;-347.443;814.743;-262.833;251.040;-820.259;-326.936;;;;
04_S10;04/05/2023;16:20:09.900;0.9727;0.2505;0.0906;-398.178;780.258;-187.149;217.471;-845.071;-270.014;;;;
04_S10;04/05/2023;16:20:10.000;0.9536;0.2732;0.2036;-188.065;472.336;-107.651;199.956;-874.262;-220.390;Inactive;0;23.42;
04_S10;04/05/2023;16:20:10.100;0.9622;0.3135;0.2173;-67.978;291.367;-277.710;182.442;-880.100;-191.199;;;;
04_S10;04/05/2023;16:20:10.200;0.8657;0.3760;0.3774;-133.820;502.853;-506.821;134.277;-872.803;-172.225;;;;
04_S10;04/05/2023;16:20:10.300;0.7791;0.4104;0.4160;-169.144;780.945;-449.905;134.277;-872.803;-172.225;;;;
04_S10;04/05/2023;16:20:10.400;0.8042;0.4685;0.5906;-112.000;433.731;-291.672;94.870;-874.262;-97.789;;;;
04_S10;04/05/2023;16:20:10.500;0.6643;0.4094;0.7446;-612.030;388.031;-250.931;89.032;-853.829;-65.679;;;;
04_S10;04/05/2023;16:20:10.600;0.5425;0.4326;0.7407;-10.757;1.134.491;76.218;102.168;-852.369;-0.5838;;;;
04_S10;04/05/2023;16:20:10.700;0.4424;0.4629;0.8486;202.408;1.100.845;-97.580;90.491;-831.936;43.786;;;;
04_S10;04/05/2023;16:20:10.800;0.2246;0.5005;0.8098;253.525;952.377;-211.182;90.491;-831.936;43.786;;;;
04_S10;04/05/2023;16:20:10.900;0.1821;0.5381;0.9431;-161.819;758.362;-88.043;72.977;-791.069;87.572;;;;
04_S10;04/05/2023;16:20:11.000;0.0002;0.3057;10.103;-1.343.689;1.038.971;-323.257;75.896;-747.282;163.468;Inactive;0;23.43;
04_S10;04/05/2023;16:20:11.100;-0.1914;0.1611;0.9736;-698.090;1.010.513;-179.138;137.196;-665.548;245.202;;;;
04_S10;04/05/2023;16:20:11.200;-0.3242;0.0830;0.9778;-533.752;679.169;-122.604;175.144;-636.358;271.474;;;;
04_S10;04/05/2023;16:20:11.300;-0.4253;-0.0383;0.9177;-663.147;841.064;-49.667;175.144;-636.358;271.474;;;;
04_S10;04/05/2023;16:20:11.400;-0.5820;-0.0752;0.8691;-548.935;1.007.538;131.454;221.849;-566.300;280.231;;;;
04_S10;04/05/2023;16:20:11.500;-0.7222;-0.1499;0.6538;-491.486;1.206.207;224.915;268.555;-475.809;280.231;;;;
04_S10;04/05/2023;16:20:11.600;-0.8188;-0.1238;0.5640;-55.313;711.212;214.081;262.716;-414.508;262.716;;;;
04_S10;04/05/2023;16:20:11.700;-0.8865;-0.0371;0.4944;19.684;710.983;466.461;242.283;-379.479;224.769;;;;
04_S10;04/05/2023;16:20:11.800;-0.8945;0.1040;0.2903;225.220;1.242.371;867.386;242.283;-379.479;224.769;;;;
04_S10;04/05/2023;16:20:11.900;-0.9114;0.2788;0.1167;205.765;1.145.935;755.844;191.199;-319.638;173.685;;;;
04_S10;04/05/2023;16:20:12.000;-0.8835;0.3015;-0.0732;30.823;782.242;544.128;156.170;-316.719;106.546;Inactive;0;23.44;
04_S10;04/05/2023;16:20:12.100;-0.8699;0.3135;-0.3569;573.730;1.193.466;438.995;128.439;-288.988;32.110;;;;
04_S10;04/05/2023;16:20:12.200;-0.7949;0.3823;-0.4976;904.694;999.603;189.743;89.032;-290.448;-71.517;;;;
04_S10;04/05/2023;16:20:12.300;-0.6279;0.1875;-0.5754;803.299;850.525;130.997;89.032;-290.448;-71.517;;;;
04_S10;04/05/2023;16:20:12.400;-0.5469;0.2307;-0.7568;645.599;950.546;215.683;89.032;-299.205;-159.089;;;;
04_S10;04/05/2023;16:20:12.500;-0.4438;0.2327;-0.8271;352.325;903.931;93.536;96.329;-332.774;-245.202;;;;
04_S10;04/05/2023;16:20:12.600;-0.3596;0.0815;-0.9375;481.186;616.608;52.567;110.925;-359.046;-297.745;;;;
04_S10;04/05/2023;16:20:12.700;-0.2607;0.0105;-0.9224;876.236;488.815;261.993;145.954;-408.670;-341.531;;;;
04_S10;04/05/2023;16:20:12.800;-0.1594;-0.1833;-0.9724;951.157;747.757;11.063;145.954;-408.670;-341.531;;;;
04_S10;04/05/2023;16:20:12.900;-0.0386;-0.2632;-0.9285;703.888;720.596;23.880;204.335;-437.861;-396.994;;;;
04_S10;04/05/2023;16:20:13.000;0.0437;-0.3879;-0.9351;331.573;533.600;-184.555;233.526;-487.485;-414.508;Inactive;0;23.43;
04_S10;04/05/2023;16:20:13.100;0.1763;-0.4512;-0.8145;636.063;728.760;-145.035;284.610;-544.407;-421.806;;;;
04_S10;04/05/2023;16:20:13.200;0.3604;-0.5737;-0.7004;881.042;1.217.270;-19.073;361.965;-636.358;-417.427;;;;
04_S10;04/05/2023;16:20:13.300;0.4739;-0.7356;-0.5320;926.361;924.988;87.280;361.965;-636.358;-417.427;;;;
04_S10;04/05/2023;16:20:13.400;0.5198;-0.8127;-0.2324;1.221.466;1.424.789;67.520;434.942;-706.415;-376.560;;;;
04_S10;04/05/2023;16:20:13.500;0.5603;-0.8542;0.0649;1.153.412;1.259.308;13.657;504.999;-785.230;-259.797;;;;
04_S10;04/05/2023;16:20:13.600;0.5925;-0.8105;0.2888;946.503;595.779;-108.948;537.109;-817.340;-183.902;;;;
04_S10;04/05/2023;16:20:13.700;0.5378;-0.7588;0.4263;1.014.557;775.909;16.632;537.109;-817.340;-183.902;;;;
04_S10;04/05/2023;16:20:13.800;0.4661;-0.6294;0.5530;908.508;558.777;-50.049;559.002;-818.800;-91.951;;;;
04_S10;04/05/2023;16:20:13.900;0.4202;-0.5891;0.6953;732.193;670.395;-47.531;554.624;-829.016;-0.8757;;;;
04_S10;04/05/2023;16:20:14.000;0.3003;-0.4363;0.8276;560.837;727.615;179.138;548.786;-805.664;67.139;Inactive;0;23.44;
04_S10;04/05/2023;16:20:14.100;0.2559;-0.4473;0.8989;368.118;296.707;53.329;529.812;-795.447;103.627;;;;
04_S10;04/05/2023;16:20:14.200;0.2322;-0.4155;0.9165;240.707;233.231;68.665;529.812;-795.447;103.627;;;;
04_S10;04/05/2023;16:20:14.300;0.2148;-0.3772;0.9731;295.334;159.683;43.869;528.352;-782.311;125.520;;;;
04_S10;04/05/2023;16:20:14.400;0.0366;-0.2905;0.9817;658.646;957.031;103.607;504.999;-773.554;151.792;;;;
04_S10;04/05/2023;16:20:14.500;-0.0725;-0.1733;10.576;494.919;643.997;220.032;487.485;-706.415;207.254;;;;
04_S10;04/05/2023;16:20:14.600;-0.1392;-0.0959;10.654;551.300;701.370;203.476;455.375;-659.710;256.878;;;;
04_S10;04/05/2023;16:20:14.700;-0.3572;0.0510;0.9514;488.892;941.467;-0.8316;455.375;-659.710;256.878;;;;
04_S10;04/05/2023;16:20:14.800;-0.4932;0.0618;0.7825;650.024;1.189.651;-47.302;427.644;-599.869;287.529;;;;
04_S10;04/05/2023;16:20:14.900;-0.6238;0.1648;0.8857;376.663;763.626;-41.885;366.344;-521.054;290.448;;;;
04_S10;04/05/2023;16:20:15.000;-0.6899;0.2185;0.7107;589.371;625.916;68.512;340.072;-462.673;281.690;Inactive;0;23.44;
04_S10;04/05/2023;16:20:15.100;-0.7583;0.3936;0.5374;730.591;505.600;341.949;275.852;-421.806;278.771;;;;
04_S10;04/05/2023;16:20:15.200;-0.7439;0.4841;0.4702;783.386;525.970;402.603;275.852;-421.806;278.771;;;;
04_S10;04/05/2023;16:20:15.300;-0.7153;0.5640;0.2488;1.476.135;769.196;339.890;208.714;-404.291;232.066;;;;
04_S10;04/05/2023;16:20:15.400;-0.7803;0.6389;-0.1914;2.282.486;1.509.933;-76.065;80.274;-334.234;62.760;;;;
04_S10;04/05/2023;16:20:15.500;-0.7708;0.5513;-0.3623;566.254;801.544;-197.678;61.301;-303.583;0.0000;;;;
04_S10;04/05/2023;16:20:15.600;-0.6746;0.4788;-0.4980;557.251;707.397;-0.4044;64.220;-306.503;-72.977;;;;
04_S10;04/05/2023;16:20:15.700;-0.5098;0.4829;-0.6304;507.050;1.014.404;318.069;64.220;-306.503;-72.977;;;;
04_S10;04/05/2023;16:20:15.800;-0.2837;0.4797;-0.8479;218.124;1.302.414;293.503;58.381;-335.693;-151.792;;;;
04_S10;04/05/2023;16:20:15.900;-0.2083;0.3989;-0.7971;275.116;1.266.708;71.793;48.165;-378.020;-226.228;;;;
04_S10;04/05/2023;16:20:16.000;0.0281;0.3445;-0.9397;657.959;860.748;289.612;71.517;-418.887;-305.043;Inactive;0;23.48;
04_S10;04/05/2023;16:20:16.100;0.1289;0.2488;-0.9663;481.415;846.252;-111.237;94.870;-459.754;-345.910;;;;
04_S10;04/05/2023;16:20:16.200;0.2742;0.1958;-0.9077;644.379;927.429;-347.672;94.870;-459.754;-345.910;;;;
04_S10;04/05/2023;16:20:16.300;0.4761;0.1455;-0.8391;258.102;1.641.922;-541.077;141.575;-509.378;-389.696;;;;
04_S10;04/05/2023;16:20:16.400;0.7183;0.1697;-0.6936;106.659;1.485.825;-512.466;135.737;-602.788;-395.534;;;;
04_S10;04/05/2023;16:20:16.500;0.8689;0.1604;-0.4844;134.048;1.374.664;-107.193;151.792;-706.415;-373.641;;;;
04_S10;04/05/2023;16:20:16.600;0.9788;0.1143;-0.2661;371.552;1.598.282;112.305;175.144;-811.502;-315.260;;;;
04_S10;04/05/2023;16:20:16.700;0.9983;0.0972;0.0300;196.533;1.660.233;351.028;175.144;-811.502;-315.260;;;;
04_S10;04/05/2023;16:20:16.800;0.9688;0.0488;0.2432;-166.168;1.394.730;141.220;191.199;-877.181;-223.309;;;;
04_S10;04/05/2023;16:20:16.900;0.9460;0.0012;0.3599;-394.669;1.023.026;290.604;204.335;-910.750;-143.035;;;;
04_S10;04/05/2023;16:20:17.000;0.8472;-0.0286;0.7583;-288.010;1.149.750;200.882;223.309;-906.372;-42.327;Inactive;0;23.46;
04_S10;04/05/2023;16:20:17.100;0.6558;-0.1201;0.7520;-152.435;1.566.544;-65.842;224.769;-890.317;72.977;;;;
04_S10;04/05/2023;16:20:17.200;0.6030;-0.0789;0.8860;-99.640;759.964;156.937;224.769;-890.317;72.977;;;;
04_S10;04/05/2023;16:20:17.300;0.4727;-0.1501;0.9819;-20.370;622.559;110.245;246.662;-871.343;115.303;;;;
04_S10;04/05/2023;16:20:17.400;0.3770;-0.1609;0.9243;-191.727;505.981;223.694;253.959;-852.369;157.630;;;;
04_S10;04/05/2023;16:20:17.500;0.3606;-0.2156;0.9639;-270.691;497.513;-32.654;272.933;-833.395;182.442;;;;
04_S10;04/05/2023;16:20:17.600;0.2510;-0.2688;10.027;-387.802;521.011;-0.8087;281.690;-804.204;220.390;;;;
04_S10;04/05/2023;16:20:17.700;0.1531;-0.2744;10.735;-163.879;1.051.254;-186.234;281.690;-804.204;220.390;;;;
04_S10;04/05/2023;16:20:17.800;-0.1331;-0.3804;0.9473;-487.366;1.595.993;-92.850;288.988;-703.496;277.312;;;;
04_S10;04/05/2023;16:20:17.900;-0.3804;-0.3962;0.8000;-443.954;1.556.015;232.544;315.260;-595.491;312.341;;;;
04_S10;04/05/2023;16:20:18.000;-0.5857;-0.5261;0.7034;-602.875;1.500.015;162.048;366.344;-474.349;275.852;Inactive;0;23.46;
04_S10;04/05/2023;16:20:18.100;-0.7771;-0.5461;0.3804;-469.284;1.492.844;226.974;366.344;-474.349;275.852;;;;
04_S10;04/05/2023;16:20:18.200;-0.8267;-0.5239;0.1328;-577.087;1.232.986;207.062;391.156;-382.398;230.607;;;;
04_S10;04/05/2023;16:20:18.300;-0.8467;-0.5012;0.0425;-633.850;866.470;187.988;424.725;-313.800;159.089;;;;
04_S10;04/05/2023;16:20:18.400;-0.8418;-0.3838;-0.2222;-988.846;1.103.363;182.571;442.239;-281.690;91.951;;;;
04_S10;04/05/2023;16:20:18.500;-0.7903;-0.3887;-0.5442;-1.319.427;1.196.289;-125.046;467.052;-256.878;-37.948;;;;
04_S10;04/05/2023;16:20:18.600;-0.7209;-0.2585;-0.8081;-1.392.059;1.101.608;-22.049;467.052;-256.878;-37.948;;;;
04_S10;04/05/2023;16:20:18.700;-0.5747;-0.0796;-0.8176;-780.258;654.449;113.449;467.052;-268.555;-160.549;;;;
04_S10;04/05/2023;16:20:18.800;-0.4978;0.0476;-0.8530;-524.902;454.330;162.277;426.185;-271.474;-224.769;;;;
04_S10;04/05/2023;16:20:18.900;-0.3743;0.0977;-0.8586;-650.787;813.370;321.732;385.318;-288.988;-271.474;;;;
04_S10;04/05/2023;16:20:19.000;-0.1846;0.2183;-0.9509;-675.507;1.313.858;263.214;347.370;-353.208;-350.289;Inactive;0;23.47;
04_S10;04/05/2023;16:20:19.100;0.0117;0.4609;-0.9060;-1.310.349;1.116.791;460.205;347.370;-353.208;-350.289;;;;
04_S10;04/05/2023;16:20:19.200;0.2300;0.6694;-0.6794;-1.737.366;1.003.571;557.480;232.066;-421.806;-392.615;;;;
04_S10;04/05/2023;16:20:19.300;0.4214;0.8015;-0.4551;-1.394.958;1.099.777;623.322;109.465;-518.135;-357.586;;;;
04_S10;04/05/2023;16:20:19.400;0.5701;0.8494;-0.1440;-1.477.509;1.248.779;580.750;26.272;-601.329;-291.907;;;;
04_S10;04/05/2023;16:20:19.500;0.6104;0.7642;0.1311;-1.131.363;1.075.439;337.677;-13.136;-667.008;-191.199;;;;
04_S10;04/05/2023;16:20:19.600;0.6152;0.8054;0.3479;-759.125;837.479;168.457;-13.136;-667.008;-191.199;;;;
04_S10;04/05/2023;16:20:19.700;0.5686;0.6633;0.5547;-1.308.136;612.946;-141.525;-10.217;-710.794;-115.303;;;;
04_S10;04/05/2023;16:20:19.800;0.5129;0.6448;0.6868;-745.926;195.999;-291.824;-33.569;-661.170;-13.136;;;;
04_S10;04/05/2023;16:20:19.900;0.4006;0.4570;0.8113;-1.369.781;808.487;-33.722;-14.595;-650.953;96.329;;;;
04_S10;04/05/2023;16:20:20.000;0.3752;0.3330;0.9258;-883.713;310.364;164.948;45.246;-658.251;147.413;Inactive;0;23.48;
04_S10;04/05/2023;16:20:20.100;0.2944;0.1768;10.042;-993.271;717.545;264.969;45.246;-658.251;147.413;;;;
04_S10;04/05/2023;16:20:20.200;0.1252;-0.0039;10.422;-877.228;1.098.785;-41.580;87.572;-615.924;218.930;;;;
04_S10;04/05/2023;16:20:20.300;-0.0698;-0.0928;10.188;-817.413;1.301.193;55.313;131.358;-551.705;253.959;;;;
04_S10;04/05/2023;16:20:20.400;-0.2903;-0.2908;0.9119;-1.019.135;1.010.818;28.687;207.254;-475.809;274.393;;;;
04_S10;04/05/2023;16:20:20.500;-0.4182;-0.4348;0.8989;-846.405;853.119;-13.351;270.014;-407.211;264.176;;;;
04_S10;04/05/2023;16:20:20.600;-0.5264;-0.4932;0.7026;-898.209;923.004;109.177;270.014;-407.211;264.176;;;;
04_S10;04/05/2023;16:20:20.700;-0.5884;-0.6460;0.5320;-1.103.363;496.445;15.182;332.774;-359.046;224.769;;;;
04_S10;04/05/2023;16:20:20.800;-0.6003;-0.7258;0.2554;-1.600.418;447.083;-69.885;407.211;-325.477;194.118;;;;
04_S10;04/05/2023;16:20:20.900;-0.6204;-0.7505;0.0869;-1.156.311;393.982;101.318;474.349;-316.719;135.737;;;;
04_S10;04/05/2023;16:20:21.000;-0.6768;-0.6899;-0.0918;-1.070.099;578.003;455.704;484.566;-286.069;64.220;Inactive;0;23.49;
04_S10;04/05/2023;16:20:21.100;-0.6770;-0.6201;-0.3218;-768.051;792.847;407.562;484.566;-286.069;64.220;;;;
04_S10;04/05/2023;16:20:21.200;-0.6252;-0.5369;-0.4944;-559.387;921.555;385.971;461.213;-253.959;-17.514;;;;
04_S10;04/05/2023;16:20:21.300;-0.6421;-0.4204;-0.6511;-566.406;636.139;604.630;413.049;-237.904;-106.546;;;;
04_S10;04/05/2023;16:20:21.400;-0.6294;-0.2908;-0.6714;-317.688;649.872;713.730;357.586;-232.066;-159.089;;;;
04_S10;04/05/2023;16:20:21.500;-0.4763;-0.1758;-0.7974;-333.939;1.166.840;399.323;334.234;-255.419;-240.823;;;;
04_S10;04/05/2023;16:20:21.600;-0.2815;-0.1316;-0.9788;-552.063;1.231.079;41.962;334.234;-255.419;-240.823;;;;
04_S10;04/05/2023;16:20:21.700;-0.1946;-0.0579;-0.9902;-295.944;519.714;399.857;316.719;-293.367;-310.881;;;;
04_S10;04/05/2023;16:20:21.800;-0.1089;-0.0020;-10.154;-442.047;681.534;110.779;272.933;-334.234;-345.910;;;;
04_S10;04/05/2023;16:20:21.900;0.0891;0.1089;-0.9644;-323.944;1.084.595;-227.356;252.500;-378.020;-360.505;;;;
04_S10;04/05/2023;16:20:22.000;0.2266;0.1511;-0.9805;-56.000;1.104.507;-101.166;252.500;-378.020;-360.505;Inactive;0;23.47;
04_S10;04/05/2023;16:20:22.100;0.3047;0.0576;-0.8662;-39.597;497.437;-277.481;256.878;-458.294;-399.913;;;;
04_S10;04/05/2023;16:20:22.200;0.5251;0.2715;-0.8440;-518.494;1.118.622;-169.907;240.823;-509.378;-413.049;;;;
04_S10;04/05/2023;16:20:22.300;0.5913;0.2478;-0.7454;-304.565;896.149;-452.499;224.769;-572.138;-405.751;;;;
04_S10;04/05/2023;16:20:22.400;0.7646;0.4199;-0.5330;-1.005.630;1.218.796;112.305;159.089;-649.494;-383.858;;;;
04_S10;04/05/2023;16:20:22.500;0.8789;0.4470;-0.2590;-1.517.258;2.100.906;467.300;159.089;-649.494;-383.858;;;;
04_S10;04/05/2023;16:20:22.600;0.9097;0.3865;0.0862;-989.532;930.099;41.885;86.113;-786.690;-229.147;;;;
04_S10;04/05/2023;16:20:22.700;0.8735;0.4434;0.2678;-1.090.546;895.691;-506.439;56.922;-804.204;-167.847;;;;
04_S10;04/05/2023;16:20:22.800;0.8320;0.6228;0.5029;-1.046.677;753.479;-447.464;0.5838;-776.473;-55.462;;;;
04_S10;04/05/2023;16:20:22.900;0.6602;0.3403;0.6746;-1.248.398;929.565;-340.805;10.217;-737.066;56.922;;;;
04_S10;04/05/2023;16:20:23.000;0.5540;0.3555;0.8210;-939.484;1.011.963;-648.727;10.217;-737.066;56.922;Inactive;0;23.5;
04_S10;04/05/2023;16:20:23.100;0.3206;0.2825;0.9749;-451.355;1.106.339;-497.742;14.595;-668.467;143.035;;;;
04_S10;04/05/2023;16:20:23.200;0.0886;0.2305;10.303;-95.062;1.465.683;-405.731;23.353;-569.219;175.144;;;;
04_S10;04/05/2023;16:20:23.300;-0.1765;0.2783;10.168;-31.586;1.523.590;-284.424;39.407;-491.864;150.332;;;;
04_S10;04/05/2023;16:20:23.400;-0.4045;0.2664;0.9375;-206.223;1.359.482;-268.097;54.003;-421.806;129.899;;;;
04_S10;04/05/2023;16:20:23.500;-0.6499;0.1787;0.6934;-574.417;1.579.285;-260.544;54.003;-421.806;129.899;;;;
04_S10;04/05/2023;16:20:23.600;-0.7856;0.0771;0.6055;-407.944;1.139.755;-386.047;99.248;-338.612;81.734;;;;
04_S10;04/05/2023;16:20:23.700;-0.8850;-0.0925;0.4514;-574.646;1.051.025;-621.948;128.439;-283.150;49.624;;;;
04_S10;04/05/2023;16:20:23.800;-0.8877;-0.2771;0.3801;-718.689;776.901;-712.051;195.578;-256.878;11.676;;;;
04_S10;04/05/2023;16:20:23.900;-0.8179;-0.4395;0.1726;-512.009;1.175.156;-484.085;224.769;-218.930;-58.381;;;;
04_S10;04/05/2023;16:20:24.000;-0.8608;-0.3250;-0.3462;-447.922;2.167.740;0.5035;224.769;-218.930;-58.381;Inactive;0;23.5;
04_S10;04/05/2023;16:20:24.100;-0.8335;-0.3091;-0.4148;-339.203;1.217.651;190.201;213.092;-256.878;-213.092;;;;
04_S10;04/05/2023;16:20:24.200;-0.6733;-0.2339;-0.6721;-96.359;1.278.000;300.064;210.173;-303.583;-268.555;;;;
04_S10;04/05/2023;16:20:24.300;-0.5156;-0.2024;-0.8096;-14.877;1.454.620;160.446;169.306;-376.560;-344.450;;;;
04_S10;04/05/2023;16:20:24.400;-0.3345;-0.2397;-0.9246;202.942;1.426.239;39.368;195.578;-461.213;-399.913;;;;
04_S10;04/05/2023;16:20:24.500;-0.1787;-0.3855;-0.8430;535.583;737.076;86.060;195.578;-461.213;-399.913;;;;
04_S10;04/05/2023;16:20:24.600;-0.0156;-0.4519;-0.8457;854.340;1.266.022;-0.4196;251.040;-525.433;-432.023;;;;
04_S10;04/05/2023;16:20:24.700;0.3008;-0.4722;-0.5776;316.772;1.552.658;-108.109;299.205;-631.979;-421.806;;;;
04_S10;04/05/2023;16:20:24.800;0.5112;-0.6499;-0.7695;299.530;1.791.382;-400.238;305.043;-763.337;-354.667;;;;
04_S10;04/05/2023;16:20:24.900;0.5745;-0.6802;-0.4963;768.356;749.741;-104.218;350.289;-811.502;-318.179;;;;
04_S10;04/05/2023;16:20:25.000;0.6323;-0.7390;-0.3638;1.222.153;913.010;206.833;350.289;-811.502;-318.179;Inactive;0;23.51;
04_S10;04/05/2023;16:20:25.100;0.5791;-0.8369;-0.0735;1.077.957;780.258;651.779;432.023;-849.450;-253.959;;;;
04_S10;04/05/2023;16:20:25.200;0.3870;-0.8677;0.1604;992.661;323.181;968.628;513.757;-840.693;-183.902;;;;
04_S10;04/05/2023;16:20:25.300;0.2170;-0.8792;0.3340;1.031.723;359.802;984.344;580.895;-779.392;-99.248;;;;
04_S10;04/05/2023;16:20:25.400;0.0022;-0.8286;0.5115;1.134.872;764.008;727.844;607.167;-744.363;-0.2919;;;;
04_S10;04/05/2023;16:20:25.500;-0.1147;-0.7148;0.7122;1.700.211;1.505.661;404.663;607.167;-744.363;-0.2919;;;;
04_S10;04/05/2023;16:20:25.600;-0.3179;-0.5115;0.7810;660.477;873.795;765.076;589.653;-659.710;140.115;;;;
04_S10;04/05/2023;16:20:25.700;-0.4385;-0.4258;0.7751;448.761;451.965;784.454;575.057;-586.733;178.063;;;;
04_S10;04/05/2023;16:20:25.800;-0.5627;-0.3076;0.8159;482.864;485.687;668.869;540.028;-513.757;207.254;;;;
04_S10;04/05/2023;16:20:25.900;-0.6541;-0.2456;0.7532;81.406;456.085;673.828;540.028;-513.757;207.254;;;;
04_S10;04/05/2023;16:20:26.000;-0.7175;-0.1292;0.7275;256.729;373.764;483.398;522.514;-472.890;204.335;Inactive;0;23.51;
04_S10;04/05/2023;16:20:26.100;-0.7722;-0.0557;0.6599;306.091;493.164;397.720;494.783;-421.806;202.876;;;;
04_S10;04/05/2023;16:20:26.200;-0.8059;0.0471;0.6099;342.484;329.514;415.344;464.132;-394.075;213.092;;;;
04_S10;04/05/2023;16:20:26.300;-0.8025;0.1501;0.5967;343.094;100.098;429.306;434.942;-373.641;210.173;;;;
04_S10;04/05/2023;16:20:26.400;-0.7976;0.2029;0.5791;201.797;91.629;384.216;434.942;-373.641;210.173;;;;
04_S10;04/05/2023;16:20:26.500;-0.7878;0.2886;0.5452;265.732;221.405;369.568;395.534;-360.505;214.552;;;;
04_S10;04/05/2023;16:20:26.600;-0.8315;0.3533;0.4851;217.743;304.108;287.857;364.884;-335.693;201.416;;;;
04_S10;04/05/2023;16:20:26.700;-0.7778;0.4482;0.4648;312.042;36.392;604.553;321.098;-326.936;195.578;;;;
04_S10;04/05/2023;16:20:26.800;-0.6497;0.5879;0.4277;408.401;16.098;1.023.941;251.040;-324.017;210.173;;;;
04_S10;04/05/2023;16:20:26.900;-0.5344;0.7942;0.3408;489.578;115.967;1.232.605;251.040;-324.017;210.173;;;;
04_S10;04/05/2023;16:20:27.000;-0.2913;0.9282;0.2747;455.093;88.425;1.483.459;170.766;-340.072;176.604;Inactive;0;23.48;
04_S10;04/05/2023;16:20:27.100;-0.1357;0.9656;0.2217;280.609;146.103;1.223.602;75.896;-402.832;166.387;;;;
04_S10;04/05/2023;16:20:27.200;0.0413;10.068;0.1565;397.949;158.539;1.002.731;33.569;-453.916;150.332;;;;
04_S10;04/05/2023;16:20:27.300;0.1663;10.005;0.0813;276.184;-99.792;848.236;13.136;-512.297;115.303;;;;
04_S10;04/05/2023;16:20:27.400;0.3494;0.9392;0.0620;171.509;-250.549;880.051;13.136;-512.297;115.303;;;;
04_S10;04/05/2023;16:20:27.500;0.5173;0.8765;-0.0491;393.295;-206.985;1.080.475;-0.7298;-576.517;112.384;;;;
04_S10;04/05/2023;16:20:27.600;0.6287;0.7729;-0.1506;533.447;-200.577;890.656;-0.7298;-667.008;71.517;;;;
04_S10;04/05/2023;16:20:27.700;0.6975;0.7991;-0.2461;221.329;-342.560;495.453;-0.2919;-697.658;40.867;;;;
04_S10;04/05/2023;16:20:27.800;0.7278;0.6941;-0.3276;161.896;-808.182;445.786;-0.1460;-760.418;-0.4379;;;;
04_S10;04/05/2023;16:20:27.900;0.6960;0.5269;-0.6189;1.462.555;-1.664.276;814.209;-0.1460;-760.418;-0.4379;;;;
04_S10;04/05/2023;16:20:28.000;0.5195;0.1897;-0.8525;1.501.236;-1.063.461;867.615;65.679;-795.447;-214.552;Inactive;0;23.49;
04_S10;04/05/2023;16:20:28.100;0.5020;-0.0217;-0.8628;850.677;-115.967;308.151;121.141;-810.042;-264.176;;;;
04_S10;04/05/2023;16:20:28.200;0.4646;-0.2715;-0.8525;1.277.084;-239.105;105.438;201.416;-814.421;-312.341;;;;
04_S10;04/05/2023;16:20:28.300;0.4026;-0.3450;-0.8076;1.055.069;-271.454;286.026;274.393;-788.149;-341.531;;;;
04_S10;04/05/2023;16:20:28.400;0.2974;-0.5806;-0.7334;1.078.949;-247.498;1.008.606;274.393;-788.149;-341.531;;;;
04_S10;04/05/2023;16:20:28.500;0.1074;-0.7119;-0.6157;1.060.638;-58.746;1.159.744;395.534;-766.256;-337.153;;;;
04_S10;04/05/2023;16:20:28.600;0.0486;-0.8530;-0.5220;656.204;-175.476;563.660;475.809;-747.282;-329.855;;;;
04_S10;04/05/2023;16:20:28.700;-0.1140;-0.8889;-0.3689;727.386;-147.476;676.117;534.190;-700.577;-300.664;;;;
04_S10;04/05/2023;16:20:28.800;-0.1770;-0.9390;-0.3508;514.832;-171.890;443.954;580.895;-662.629;-280.231;;;;
04_S10;04/05/2023;16:20:28.900;-0.3010;-0.9417;-0.2798;551.529;-463.333;624.161;580.895;-662.629;-280.231;;;;
04_S10;04/05/2023;16:20:29.000;-0.3926;-0.8582;-0.0400;1.107.712;-960.159;700.226;614.465;-594.031;-237.904;Inactive;0;23.52;
04_S10;04/05/2023;16:20:29.100;-0.4053;-0.7346;0.3008;1.605.225;-1.139.450;299.149;658.251;-529.812;-126.980;;;;
04_S10;04/05/2023;16:20:29.200;-0.3125;-0.7261;0.6089;1.220.932;-881.577;10.147;650.953;-531.271;-0.5838;;;;
04_S10;04/05/2023;16:20:29.300;-0.2771;-0.6272;0.7305;913.925;-487.518;-31.052;634.898;-529.812;62.760;;;;
04_S10;04/05/2023;16:20:29.400;-0.2388;-0.4370;0.9028;1.006.927;-437.851;-100.937;634.898;-529.812;62.760;;;;
04_S10;04/05/2023;16:20:29.500;-0.1597;-0.3147;0.9395;702.438;-434.570;-138.626;621.762;-557.543;131.358;;;;
04_S10;04/05/2023;16:20:29.600;-0.0095;-0.3433;11.484;359.497;-600.433;-129.395;592.572;-589.653;160.549;;;;
04_S10;04/05/2023;16:20:29.700;0.0530;-0.2161;10.205;117.645;-333.786;-142.975;594.031;-623.222;176.604;;;;
04_S10;04/05/2023;16:20:29.800;0.0559;-0.3271;0.9771;-11.826;-49.744;-247.650;604.248;-656.791;166.387;;;;
04_S10;04/05/2023;16:20:29.900;0.0312;-0.2324;0.9038;367.508;-51.346;-130.386;604.248;-656.791;166.387;;;;
04_S10;04/05/2023;16:20:30.000;0.0508;-0.0845;10.596;406.418;153.198;-141.907;579.436;-652.413;182.442;Inactive;0;23.54;
04_S10;04/05/2023;16:20:30.100;0.0132;-0.1304;10.046;-15.106;222.397;-60.196;561.921;-643.655;217.471;;;;
04_S10;04/05/2023;16:20:30.200;0.0071;-0.0859;10.601;149.384;208.130;-84.534;550.245;-643.655;217.471;;;;
04_S10;04/05/2023;16:20:30.300;-0.0198;-0.0642;10.583;220.642;158.920;80.948;550.245;-643.655;217.471;;;;
04_S10;04/05/2023;16:20:30.400;-0.0842;-0.0242;10.227;258.408;266.495;-56.305;547.326;-631.979;246.662;;;;
04_S10;04/05/2023;16:20:30.500;-0.0493;0.0164;10.449;224.152;-102.234;-75.607;519.595;-621.762;253.959;;;;
04_S10;04/05/2023;16:20:30.600;0.0466;0.1030;11.880;237.350;-265.045;51.575;509.378;-631.979;264.176;;;;
04_S10;04/05/2023;16:20:30.700;0.0271;0.0093;10.791;-293.198;-133.514;51.346;526.892;-649.494;246.662;;;;
04_S10;04/05/2023;16:20:30.800;0.0273;-0.0005;10.425;-81.177;12.436;-0.2213;526.892;-649.494;246.662;;;;
04_S10;04/05/2023;16:20:30.900;0.0273;0.0005;10.420;-13.351;20.142;0.5112;529.812;-649.494;255.419;;;;
04_S10;04/05/2023;16:20:31.000;0.0276;0.0000;10.420;-10.223;20.294;0.5417;519.595;-665.548;251.040;Inactive;0;23.55;
04_S10;04/05/2023;16:20:31.100;0.0281;-0.0010;10.432;-10.071;20.294;0.5646;518.135;-661.170;246.662;;;;
04_S10;04/05/2023;16:20:31.200;0.0278;-0.0002;10.417;-10.223;20.218;0.5798;529.812;-658.251;246.662;;;;
04_S10;04/05/2023;16:20:31.300;0.0271;-0.0005;10.405;-0.9842;20.370;0.5722;529.812;-658.251;246.662;;;;
04_S10;04/05/2023;16:20:31.400;0.0273;-0.0002;10.420;-10.071;20.370;0.5722;528.352;-659.710;245.202;;;;
04_S10;04/05/2023;16:20:31.500;0.0276;-0.0007;10.427;-0.9995;20.142;0.5722;532.731;-661.170;264.176;;;;
04_S10;04/05/2023;16:20:31.600;0.0271;0.0000;10.422;-0.9918;20.447;0.5875;507.919;-735.606;324.017;;;;
04_S10;04/05/2023;16:20:31.700;0.0266;-0.0005;10.420;-0.9766;20.447;0.5798;253.959;-1.491.646;239.364;;;;
04_S10;04/05/2023;16:20:31.800;0.0276;0.0000;10.422;-10.071;20.523;0.5722;253.959;-1.491.646;239.364;;;;
04_S10;04/05/2023;16:20:31.900;0.0278;0.0000;10.427;-0.9918;20.599;0.5646;-630.520;-4.121.730;-4.863.174;;;;
04_S10;04/05/2023;16:20:32.000;0.0276;-0.0007;10.430;-0.9842;20.370;0.5417;-5.219.301;-6.255.571;-30.641.499;Inactive;0;23.52;
04_S10;04/05/2023;16:20:32.100;0.0286;-0.0005;10.432;-10.300;19.989;0.5875;0.0000;0.0000;-47.820.238;;;;
04_S10;04/05/2023;16:20:32.200;0.0278;-0.0005;10.427;-10.147;20.142;0.6104;0.0000;0.0000;-47.820.238;;;;TIMEMARK!
04_S10;04/05/2023;16:20:32.300;0.0276;-0.0005;10.408;-10.223;20.447;0.6104;0.0000;0.0000;-47.820.238;;;;
04_S10;04/05/2023;16:20:32.400;0.0273;-0.0002;10.422;-10.223;20.218;0.5951;0.0000;0.0000;-47.820.238;;;;
04_S10;04/05/2023;16:20:32.500;0.0288;-0.0005;10.432;-10.452;20.142;0.5798;0.0000;0.0000;-47.820.238;;;;
04_S10;04/05/2023;16:20:32.600;0.0273;-0.0002;10.422;-10.071;20.599;0.5798;0.0000;0.0000;-47.820.238;;;;
04_S10;04/05/2023;16:20:32.700;0.0276;-0.0012;10.417;-10.147;20.370;0.5798;0.0000;0.0000;-47.820.238;;;;
04_S10;04/05/2023;16:20:32.800;0.0288;0.0000;10.422;-10.071;20.599;0.6027;0.0000;0.0000;-47.820.238;;;;
04_S10;04/05/2023;16:20:32.900;0.0286;-0.0002;10.413;-0.9918;20.218;0.5951;0.0000;0.0000;-47.820.238;;;;
04_S10;04/05/2023;16:20:33.000;0.0269;0.0000;10.415;-10.071;20.294;0.5798;0.0000;0.0000;-47.820.238;Inactive;0;23.55;
04_S10;04/05/2023;16:20:33.100;0.0271;-0.0005;10.437;-10.223;20.370;0.5646;0.0000;0.0000;-47.820.238;;;;
04_S10;04/05/2023;16:20:33.200;0.0281;-0.0005;10.410;-10.529;20.447;0.5722;0.0000;0.0000;-47.820.238;;;;
04_S10;04/05/2023;16:20:33.300;0.0266;-0.0007;10.422;-10.223;20.447;0.5493;0.0000;0.0000;-47.820.238;;;;TIMEMARK!
04_S10;04/05/2023;16:20:33.400;0.0273;0.0000;10.422;-10.071;20.065;0.5875;0.0000;0.0000;-47.820.238;;;;
04_S10;04/05/2023;16:20:33.500;0.0278;-0.0005;10.425;-0.9995;20.142;0.5646;-2.260.821;-4.318.767;-2.237.469;;;;
04_S10;04/05/2023;16:20:33.600;0.0273;-0.0012;10.435;-10.147;20.447;0.5722;201.416;-379.479;-122.601;;;;
04_S10;04/05/2023;16:20:33.700;0.0269;0.0000;10.427;-0.9995;20.447;0.5646;255.419;-270.014;-156.170;;;;
04_S10;04/05/2023;16:20:33.800;0.0278;-0.0005;10.422;-0.9918;20.218;0.5646;255.419;-270.014;-156.170;;;;
04_S10;04/05/2023;16:20:33.900;0.0278;-0.0007;10.415;-10.300;20.218;0.5646;270.014;-249.581;-159.089;;;;
04_S10;04/05/2023;16:20:34.000;0.0273;-0.0007;10.425;-0.9918;20.294;0.5646;258.338;-243.743;-159.089;Inactive;0;23.55;
04_S10;04/05/2023;16:20:34.100;0.0278;0.0000;10.422;-10.071;20.294;0.5646;267.095;-234.985;-173.685;;;;
04_S10;04/05/2023;16:20:34.200;0.0273;-0.0012;10.427;-10.300;20.142;0.5417;267.095;-234.985;-173.685;;;;
04_S10;04/05/2023;16:20:34.300;0.0281;-0.0010;10.415;-10.376;20.370;0.5722;261.257;-229.147;-173.685;;;;
04_S10;04/05/2023;16:20:34.400;0.0271;-0.0005;10.413;-10.223;20.752;0.5722;261.257;-232.066;-164.928;;;;
04_S10;04/05/2023;16:20:34.500;0.0273;-0.0007;10.420;-10.223;20.676;0.5722;274.393;-239.364;-163.468;;;;
04_S10;04/05/2023;16:20:34.600;0.0281;-0.0002;10.422;-10.300;20.447;0.5569;259.797;-233.526;-169.306;;;;
04_S10;04/05/2023;16:20:34.700;0.0278;-0.0007;10.427;-0.9995;20.447;0.5722;259.797;-233.526;-169.306;;;;
04_S10;04/05/2023;16:20:34.800;0.0281;-0.0005;10.422;-10.452;20.294;0.5646;267.095;-234.985;-182.442;;;;
04_S10;04/05/2023;16:20:34.900;0.0276;-0.0007;10.425;-10.223;20.218;0.5493;262.716;-245.202;-172.225;;;;
04_S10;04/05/2023;16:20:35.000;0.0276;0.0007;10.432;-10.300;20.065;0.6104;268.555;-233.526;-175.144;Inactive;0;23.54;
04_S10;04/05/2023;16:20:35.100;0.0278;-0.0002;10.437;-0.9918;20.370;0.5646;256.878;-253.959;-166.387;;;;
04_S10;04/05/2023;16:20:35.200;0.0278;0.0000;10.420;-0.9766;20.523;0.5798;256.878;-253.959;-166.387;;;;
04_S10;04/05/2023;16:20:35.300;0.0271;0.0000;10.415;-0.9995;20.676;0.5798;267.095;-229.147;-170.766;;;;
04_S10;04/05/2023;16:20:35.400;0.0273;0.0002;10.432;-0.9995;20.447;0.5646;267.095;-237.904;-170.766;;;;
04_S10;04/05/2023;16:20:35.500;0.0273;-0.0002;10.420;-10.071;20.447;0.5417;262.716;-242.283;-178.063;;;;
04_S10;04/05/2023;16:20:35.600;0.0273;-0.0015;10.435;-10.300;20.523;0.5722;265.636;-239.364;-178.063;;;;
04_S10;04/05/2023;16:20:35.700;0.0278;0.0002;10.413;-10.071;20.523;0.5569;265.636;-239.364;-178.063;;;;
04_S10;04/05/2023;16:20:35.800;0.0278;-0.0005;10.425;-10.376;20.294;0.5493;248.121;-286.069;-163.468;;;;
04_S10;04/05/2023;16:20:35.900;0.0278;0.0000;10.432;-10.529;20.142;0.5722;116.763;-750.202;-105.087;;;;
04_S10;04/05/2023;16:20:36.000;0.0278;0.0002;10.420;-10.300;20.523;0.5646;-3.297.092;-5.404.662;-11.677.748;Inactive;0;23.55;
04_S10;04/05/2023;16:20:36.100;0.0278;0.0000;10.432;-10.529;20.523;0.5646;-14.090.361;7.478.662;-27.196.994;;;;TIMEMARK!
04_S10;04/05/2023;16:20:36.200;0.0281;0.0002;10.422;-10.681;20.294;0.6027;-14.090.361;7.478.662;-27.196.994;;;;
04_S10;04/05/2023;16:20:36.300;0.0273;0.0000;10.427;-10.071;20.294;0.5875;-13.957.543;4.963.882;-33.862.695;;;;
04_S10;04/05/2023;16:20:36.400;0.0276;-0.0005;10.415;-10.452;20.065;0.5798;-11.361.028;11.361.028;-36.459.209;;;;
04_S10;04/05/2023;16:20:36.500;0.0281;-0.0002;10.430;-10.376;20.142;0.5722;-10.785.971;10.785.971;-37.034.266;;;;
04_S10;04/05/2023;16:20:36.600;0.0276;-0.0005;10.420;-10.223;20.142;0.5722;-8.706.132;8.706.132;-39.114.105;;;;
04_S10;04/05/2023;16:20:36.700;0.0281;0.0000;10.413;-10.071;20.370;0.5875;-8.706.132;8.706.132;-39.114.105;;;;
04_S10;04/05/2023;16:20:36.800;0.0281;-0.0007;10.432;-10.300;20.447;0.5798;-8.409.846;8.409.846;-39.410.391;;;;
04_S10;04/05/2023;16:20:36.900;0.0286;0.0005;10.422;-10.605;20.370;0.5798;-8.910.467;8.910.467;-38.909.770;;;;
04_S10;04/05/2023;16:20:37.000;0.0276;-0.0010;10.430;-10.147;20.218;0.5798;-10.340.813;10.340.813;-37.479.425;Inactive;0;23.57;
04_S10;04/05/2023;16:20:37.100;0.0273;-0.0005;10.437;-0.9918;20.294;0.5875;-10.762.618;10.762.618;-37.057.619;;;;
04_S10;04/05/2023;16:20:37.200;0.0273;-0.0002;10.417;-0.9995;20.370;0.5798;-10.762.618;10.762.618;-37.057.619;;;;
04_S10;04/05/2023;16:20:37.300;0.0276;0.0000;10.420;-10.071;20.142;0.5798;-11.153.774;11.153.774;-36.666.463;;;;
04_S10;04/05/2023;16:20:37.400;0.0283;0.0002;10.430;-10.376;20.370;0.6027;-12.315.565;12.315.565;-35.504.673;;;;
04_S10;04/05/2023;16:20:37.500;0.0271;0.0002;10.437;-10.452;20.294;0.5798;-439.320;-1.209.955;-188.280;;;;
04_S10;04/05/2023;16:20:37.600;0.0273;-0.0010;10.430;-0.9995;20.370;0.5951;280.231;-253.959;-108.006;;;;
04_S10;04/05/2023;16:20:37.700;0.0281;-0.0002;10.430;-0.9995;20.523;0.5493;280.231;-253.959;-108.006;;;;
04_S10;04/05/2023;16:20:37.800;0.0278;-0.0005;10.425;-10.452;20.218;0.5417;293.367;-249.581;-121.141;;;;
04_S10;04/05/2023;16:20:37.900;0.0271;-0.0002;10.413;-10.300;20.447;0.5951;287.529;-243.743;-115.303;;;;
04_S10;04/05/2023;16:20:38.000;0.0276;-0.0007;10.430;-10.452;20.142;0.5646;293.367;-237.904;-106.546;Inactive;0;23.57;
04_S10;04/05/2023;16:20:38.100;0.0286;-0.0005;10.413;-10.452;20.065;0.5341;293.367;-237.904;-106.546;;;;
04_S10;04/05/2023;16:20:38.200;0.0278;-0.0007;10.432;-10.147;20.523;0.5417;293.367;-237.904;-106.546;;;;
04_S10;04/05/2023;16:20:38.300;0.0266;-0.0007;10.435;-10.376;20.370;0.5722;290.448;-249.581;-112.384;;;;
04_S10;04/05/2023;16:20:38.400;0.0288;-0.0002;10.479;-10.300;20.447;0.5798;309.422;-251.040;-116.763;;;;
04_S10;04/05/2023;16:20:38.500;0.0286;-0.0007;10.447;-10.071;20.218;0.5798;288.988;-245.202;-116.763;;;;
04_S10;04/05/2023;16:20:38.600;0.0264;-0.0005;10.432;-0.9842;20.294;0.5646;288.988;-245.202;-116.763;;;;
04_S10;04/05/2023;16:20:38.700;0.0278;0.0005;10.413;-0.9995;20.218;0.5417;303.583;-236.445;-125.520;;;;
04_S10;04/05/2023;16:20:38.800;0.0295;-0.0007;10.437;-10.147;20.142;0.5798;306.503;-236.445;-116.763;;;;
04_S10;04/05/2023;16:20:38.900;0.0264;0.0000;10.437;-10.147;20.065;0.5875;315.260;-224.769;-113.844;;;;
04_S10;04/05/2023;16:20:39.000;0.0000;0.0000;0.0000;0.0000;0.0000;0.0000;0.0000;0.0000;0.0000;Inactive;;21;Power off command received.
