TagID,Date,Time,accX,accY,accZ,gyroX,gyroY,gyroZ,compX,compY,compZ,Activity,Depth,Temp. (?C),Metadata
02_S6,04/05/2023,16:59:14.000,-0.0005,-0.9358,0.0935,-0.6409,0.6943,-1.6556,-81.0042,-50.6459,-12.4061,Active,0,-397.7,
02_S6,04/05/2023,16:59:14.100,-0.0015,-0.9768,0.0959,-0.3281,1.7700,-2.8687,-79.9826,-49.9161,-11.3844,,,,
02_S6,04/05/2023,16:59:14.200,-0.0024,-0.9783,0.0969,-0.5035,1.8768,-2.8992,-80.4204,-49.4783,-11.5303,,,,
02_S6,04/05/2023,16:59:14.300,-0.0017,-0.9771,0.0974,-0.1602,1.8845,-2.9373,-79.8366,-50.6459,-11.8222,,,,
02_S6,04/05/2023,16:59:14.400,-0.0020,-0.9773,0.0974,-0.2060,1.8692,-2.9297,-79.8366,-50.6459,-11.8222,,,,
02_S6,04/05/2023,16:59:14.500,-0.0024,-0.9775,0.0977,-0.2594,1.8539,-2.9144,-79.8366,-50.6459,-11.8222,,,,
02_S6,04/05/2023,16:59:14.600,-0.0024,-0.9790,0.0947,-0.6943,1.8768,-2.9297,-80.1285,-49.4783,-12.9899,,,,
02_S6,04/05/2023,16:59:14.700,-0.0029,-0.9778,0.0977,-0.0916,1.8845,-2.9526,-81.4421,-50.4999,-11.0925,,,,
02_S6,04/05/2023,16:59:14.800,-0.0032,-0.9775,0.0984,-0.3815,1.8845,-2.9373,-79.3988,-49.9161,-11.6763,,,,
02_S6,04/05/2023,16:59:14.900,-0.0027,-0.9778,0.0986,-0.2289,1.8463,-2.9297,-80.4204,-50.0621,-12.1141,,,,
02_S6,04/05/2023,16:59:15.000,-0.0017,-0.9783,0.0972,-0.1602,1.8539,-2.9297,-79.5447,-49.4783,-12.4061,Inactive,0,24.13,
02_S6,04/05/2023,16:59:15.100,-0.0022,-0.9788,0.0972,-0.2747,1.8616,-2.9526,-79.5447,-49.4783,-12.4061,,,,
02_S6,04/05/2023,16:59:15.200,-0.0027,-0.9792,0.0969,-0.3357,1.8616,-2.9297,-78.9609,-49.1864,-10.6546,,,,
02_S6,04/05/2023,16:59:15.300,-0.0034,-0.9780,0.0977,-0.1678,1.8768,-2.9297,-80.1285,-49.1864,-12.1141,,,,
02_S6,04/05/2023,16:59:15.400,-0.0034,-0.9788,0.0957,-0.5951,1.8768,-2.9068,-79.5447,-49.1864,-11.8222,,,,
02_S6,04/05/2023,16:59:15.500,-0.0027,-0.9780,0.0972,0.0305,1.8387,-2.9144,-80.2745,-50.2080,-10.5087,,,,
02_S6,04/05/2023,16:59:15.600,-0.0034,-0.9795,0.0950,-0.5417,1.8463,-2.8839,-80.2745,-50.2080,-10.5087,,,,
02_S6,04/05/2023,16:59:15.700,-0.0029,-0.9792,0.0957,-0.3967,1.8539,-2.9449,-80.5664,-49.9161,-12.2601,,,,
02_S6,04/05/2023,16:59:15.800,-0.0022,-0.9785,0.1006,0.2975,1.8234,-2.9526,-79.8366,-49.1864,-11.5303,,,,
02_S6,04/05/2023,16:59:15.900,-0.0020,-0.9783,0.0999,-0.1984,1.8616,-2.9221,-79.6907,-50.2080,-12.2601,,,,
02_S6,04/05/2023,16:59:16.000,-0.0034,-0.9778,0.1008,-0.0076,1.8616,-2.9449,-81.2962,-49.7702,-11.2384,Inactive,0,24.11,
02_S6,04/05/2023,16:59:16.100,-0.0029,-0.9780,0.0991,-0.3510,1.8539,-2.9068,-81.2962,-49.7702,-11.2384,,,,
02_S6,04/05/2023,16:59:16.200,-0.0037,-0.9785,0.0994,-0.3281,1.8616,-2.9144,-79.5447,-49.7702,-11.5303,,,,
02_S6,04/05/2023,16:59:16.300,-0.0034,-0.9790,0.0974,-0.5569,1.8616,-2.9221,-80.8583,-49.0404,-11.9682,,,,
02_S6,04/05/2023,16:59:16.400,-0.0027,-0.9795,0.0979,-0.4501,1.8539,-2.9144,-79.3988,-49.3323,-11.6763,,,,
02_S6,04/05/2023,16:59:16.500,-0.0020,-0.9778,0.0991,-0.2975,1.8845,-2.9373,-79.1069,-49.6242,-11.6763,,,,
02_S6,04/05/2023,16:59:16.600,-0.0024,-0.9788,0.0986,-0.5569,1.8768,-2.9526,-79.1069,-49.6242,-11.6763,,,,
02_S6,04/05/2023,16:59:16.700,-0.0022,-0.9775,0.0986,-0.1297,1.8768,-2.9449,-79.9826,-48.7485,-12.5520,,,,
02_S6,04/05/2023,16:59:16.800,-0.0032,-0.9771,0.0994,-0.3510,1.8768,-2.9221,-79.6907,-49.6242,-11.9682,,,,
02_S6,04/05/2023,16:59:16.900,-0.0037,-0.9768,0.1001,-0.0610,1.8921,-2.9297,-78.8149,-50.2080,-12.5520,,,,
02_S6,04/05/2023,16:59:17.000,-0.0039,-0.9783,0.0994,0.0229,1.8921,-2.9373,-79.5447,-50.0621,-11.8222,Inactive,0,24.14,
02_S6,04/05/2023,16:59:17.100,-0.0024,-0.9778,0.0986,-0.2747,1.8616,-2.9297,-80.4204,-49.1864,-12.4061,,,,
02_S6,04/05/2023,16:59:17.200,-0.0022,-0.9783,0.0996,0.3433,1.8387,-2.9755,-80.4204,-49.1864,-12.4061,,,,
02_S6,04/05/2023,16:59:17.300,-0.0029,-0.9788,0.0994,-0.5264,1.8539,-2.9144,-79.5447,-51.2297,-10.6546,,,,
02_S6,04/05/2023,16:59:17.400,-0.0027,-0.9792,0.0979,-1.0529,1.8845,-2.9068,-80.1285,-48.6025,-11.5303,,,,
02_S6,04/05/2023,16:59:17.500,-0.0032,-0.9788,0.0962,-0.7019,1.8921,-2.9221,-80.1285,-49.4783,-10.9465,,,,
02_S6,04/05/2023,16:59:17.600,-0.0024,-0.9773,0.1011,0.3128,1.8311,-2.9526,-79.5447,-49.4783,-11.5303,,,,
02_S6,04/05/2023,16:59:17.700,-0.0024,-0.9783,0.0996,-0.6256,1.8768,-2.9297,-79.5447,-49.4783,-11.5303,,,,
02_S6,04/05/2023,16:59:17.800,-0.0017,-0.9775,0.1011,-0.1907,1.8463,-2.9373,-78.9609,-49.7702,-12.1141,,,,
02_S6,04/05/2023,16:59:17.900,-0.0022,-0.9771,0.1013,-0.2136,1.8387,-2.9144,-80.2745,-49.3323,-11.6763,,,,
02_S6,04/05/2023,16:59:18.000,-0.0020,-0.9783,0.0996,-0.5417,1.8387,-2.9297,-79.6907,-49.6242,-12.2601,Inactive,0,24.16,
02_S6,04/05/2023,16:59:18.100,-0.0024,-0.9785,0.1001,-0.5798,1.8234,-2.8992,-79.3988,-49.9161,-11.6763,,,,
02_S6,04/05/2023,16:59:18.200,-0.0022,-0.9778,0.0977,-0.6027,1.8387,-2.9068,-79.3988,-49.9161,-11.6763,,,,
02_S6,04/05/2023,16:59:18.300,-0.0022,-0.9773,0.0994,0.4730,1.8387,-2.9526,-80.1285,-48.8945,-12.1141,,,,
02_S6,04/05/2023,16:59:18.400,-0.0024,-0.9785,0.0972,-0.7782,1.8768,-2.9297,-80.7123,-49.4783,-11.5303,,,,
02_S6,04/05/2023,16:59:18.500,-0.0027,-0.9800,0.0947,-0.9384,1.8539,-2.9144,-79.6907,-49.3323,-11.3844,,,,
02_S6,04/05/2023,16:59:18.600,-0.0027,-0.9785,0.0986,0.1068,1.8082,-2.9068,-79.9826,-49.6242,-11.3844,,,,
02_S6,04/05/2023,16:59:18.700,-0.0022,-0.9792,0.0979,-0.1831,1.8692,-2.9144,-79.9826,-49.6242,-11.3844,,,,
02_S6,04/05/2023,16:59:18.800,-0.0027,-0.9785,0.0989,-0.1221,1.8539,-2.9221,-79.6907,-48.4566,-12.5520,,,,
02_S6,04/05/2023,16:59:18.900,-0.0020,-0.9775,0.1013,0.0610,1.8616,-2.9526,-79.8366,-48.6025,-11.8222,,,,
02_S6,04/05/2023,16:59:19.000,-0.0020,-0.9785,0.1018,-0.0076,1.8311,-2.9373,-79.5447,-50.0621,-10.9465,Inactive,0,24.16,
02_S6,04/05/2023,16:59:19.100,-0.0027,-0.9788,0.0986,-0.5798,1.8997,-2.9144,-80.1285,-50.9378,-11.8222,,,,
02_S6,04/05/2023,16:59:19.200,-0.0034,-0.9778,0.0986,-0.8240,1.9150,-2.9068,-80.4204,-50.6459,-10.9465,,,,
02_S6,04/05/2023,16:59:19.300,-0.0020,-0.9778,0.0996,-0.4883,1.8463,-2.9373,-80.4204,-50.6459,-10.9465,,,,
02_S6,04/05/2023,16:59:19.400,-0.0020,-0.9780,0.0986,-0.3357,1.8616,-2.8992,-81.2962,-49.4783,-12.1141,,,,
02_S6,04/05/2023,16:59:19.500,-0.0027,-0.9792,0.0959,-0.5112,1.8921,-2.9068,-79.8366,-49.1864,-11.5303,,,,
02_S6,04/05/2023,16:59:19.600,-0.0032,-0.9792,0.0964,-0.1602,1.8539,-2.9068,-79.5447,-49.7702,-12.4061,,,,
02_S6,04/05/2023,16:59:19.700,-0.0022,-0.9792,0.0974,-0.2441,1.8768,-2.9373,-79.8366,-49.7702,-10.6546,,,,
02_S6,04/05/2023,16:59:19.800,-0.0024,-0.9788,0.0991,-0.2441,1.8616,-2.9526,-79.8366,-49.7702,-10.6546,,,,
02_S6,04/05/2023,16:59:19.900,-0.0024,-0.9778,0.0999,-0.2136,1.8311,-2.9602,-79.3988,-49.9161,-10.5087,,,,
02_S6,04/05/2023,16:59:20.000,-0.0027,-0.9761,0.1030,-0.1297,1.8234,-2.9373,-78.9609,-48.8945,-12.1141,Inactive,0,24.15,
02_S6,04/05/2023,16:59:20.100,-0.0029,-0.9771,0.1016,-0.5188,1.8768,-2.9297,-79.6907,-49.6242,-11.9682,,,,
02_S6,04/05/2023,16:59:20.200,-0.0027,-0.9778,0.1003,-0.2289,1.8463,-2.9373,-79.9826,-49.3323,-11.9682,,,,
02_S6,04/05/2023,16:59:20.300,-0.0017,-0.9783,0.0967,-1.2283,1.8539,-2.9068,-79.9826,-49.3323,-11.9682,,,,
02_S6,04/05/2023,16:59:20.400,-0.0029,-0.9788,0.0930,-0.6561,1.8463,-2.9297,-79.9826,-50.2080,-10.5087,,,,
02_S6,04/05/2023,16:59:20.500,-0.0029,-0.9783,0.0977,0.1450,1.8234,-2.9755,-79.1069,-49.3323,-11.6763,,,,
02_S6,04/05/2023,16:59:20.600,-0.0020,-0.9785,0.0977,-0.8469,1.8616,-2.9068,-79.8366,-48.6025,-11.8222,,,,
02_S6,04/05/2023,16:59:20.700,-0.0022,-0.9780,0.0962,-0.8926,1.8768,-2.8687,-79.5447,-49.7702,-12.1141,,,,
02_S6,04/05/2023,16:59:20.800,-0.0027,-0.9792,0.0935,-1.1368,1.8921,-2.9068,-79.5447,-49.7702,-12.1141,,,,
02_S6,04/05/2023,16:59:20.900,-0.0027,-0.9785,0.0942,-0.5112,1.8539,-2.9068,-78.8149,-49.3323,-11.3844,,,,
02_S6,04/05/2023,16:59:21.000,-0.0027,-0.9780,0.0930,-0.5798,1.8463,-2.9068,-79.5447,-48.6025,-10.3627,Inactive,0,24.15,
02_S6,04/05/2023,16:59:21.100,-0.0022,-0.9788,0.0916,-0.8316,1.8768,-2.8839,-79.9826,-49.9161,-12.5520,,,,
02_S6,04/05/2023,16:59:21.200,-0.0024,-0.9797,0.0918,-0.5951,1.8692,-2.9144,-78.5230,-49.9161,-11.3844,,,,
02_S6,04/05/2023,16:59:21.300,-0.0034,-0.9778,0.0928,0.0458,1.8387,-2.9449,-78.6690,-49.4783,-11.8222,,,,
02_S6,04/05/2023,16:59:21.400,-0.0032,-0.9785,0.0901,-0.7172,1.8616,-2.9297,-78.6690,-49.4783,-11.8222,,,,
02_S6,04/05/2023,16:59:21.500,-0.0032,-0.9785,0.0945,-0.0076,1.8387,-2.9221,-79.2528,-48.6025,-12.4061,,,,
02_S6,04/05/2023,16:59:21.600,-0.0044,-0.9800,0.0879,-0.8011,1.8539,-2.8992,-78.6690,-49.4783,-12.1141,,,,
02_S6,04/05/2023,16:59:21.700,-0.0029,-0.9778,0.0933,0.2365,1.8539,-2.9297,-78.5230,-50.4999,-11.0925,,,,
02_S6,04/05/2023,16:59:21.800,-0.0034,-0.9768,0.0945,-0.3967,1.8539,-2.9297,-79.5447,-49.4783,-11.5303,,,,
02_S6,04/05/2023,16:59:21.900,-0.0022,-0.9783,0.0930,-0.8926,1.8539,-2.9144,-79.5447,-49.4783,-11.5303,,,,
02_S6,04/05/2023,16:59:22.000,-0.0022,-0.9780,0.0918,-0.4120,1.8158,-2.9373,-79.1069,-47.8728,-11.9682,Inactive,0,24.15,
02_S6,04/05/2023,16:59:22.100,-0.0037,-0.9785,0.0911,0.1297,1.8311,-2.9526,-78.3771,-48.8945,-12.4061,,,,
02_S6,04/05/2023,16:59:22.200,-0.0039,-0.9792,0.0898,-0.2136,1.8311,-2.9297,-78.3771,-48.8945,-12.4061,,,,
02_S6,04/05/2023,16:59:22.300,-0.0027,-0.9780,0.0933,-0.0076,1.8692,-2.9373,-79.1069,-49.0404,-11.3844,,,,
02_S6,04/05/2023,16:59:22.400,-0.0037,-0.9800,0.0901,-0.4959,1.8692,-2.9373,-79.1069,-49.0404,-11.3844,,,,
02_S6,04/05/2023,16:59:22.500,-0.0022,-0.9780,0.0938,0.1450,1.8387,-2.9602,-78.9609,-48.3106,-12.1141,,,,
02_S6,04/05/2023,16:59:22.600,-0.0032,-0.9785,0.0911,-0.8469,1.8768,-2.9144,-79.5447,-49.7702,-12.9899,,,,
02_S6,04/05/2023,16:59:22.700,-0.0034,-0.9788,0.0898,-0.5341,1.8692,-2.9144,-79.8366,-47.7268,-10.9465,,,,
02_S6,04/05/2023,16:59:22.800,-0.0022,-0.9788,0.0918,-0.3052,1.8539,-2.9221,-79.1069,-49.0404,-11.0925,,,,
02_S6,04/05/2023,16:59:22.900,-0.0029,-0.9775,0.0930,-0.0687,1.8311,-2.9297,-79.1069,-49.0404,-11.0925,,,,
02_S6,04/05/2023,16:59:23.000,-0.0027,-0.9792,0.0903,-0.6256,1.8463,-2.9144,-79.2528,-49.7702,-11.8222,Inactive,0,24.15,
02_S6,04/05/2023,16:59:23.100,-0.0032,-0.9788,0.0906,-0.2441,1.8539,-2.9602,-79.3988,-49.0404,-11.9682,,,,
02_S6,04/05/2023,16:59:23.200,-0.0027,-0.9790,0.0901,-0.8621,1.8845,-2.9297,-78.8149,-48.7485,-11.6763,,,,
02_S6,04/05/2023,16:59:23.300,-0.0029,-0.9792,0.0903,-0.4120,1.8845,-2.9068,-78.8149,-49.0404,-11.9682,,,,
02_S6,04/05/2023,16:59:23.400,-0.0024,-0.9780,0.0911,-0.0763,1.8387,-2.9526,-78.3771,-49.7702,-11.5303,,,,
02_S6,04/05/2023,16:59:23.500,-0.0032,-0.9795,0.0891,-0.5875,1.8616,-2.9221,-78.3771,-49.7702,-11.5303,,,,
02_S6,04/05/2023,16:59:23.600,-0.0044,-0.9797,0.0881,-0.3433,1.8463,-2.9221,-77.9392,-48.4566,-11.3844,,,,
02_S6,04/05/2023,16:59:23.700,-0.0029,-0.9775,0.0933,0.5112,1.8616,-2.9526,-79.2528,-49.4783,-11.8222,,,,
02_S6,04/05/2023,16:59:23.800,-0.0042,-0.9790,0.0916,-0.6027,1.8387,-2.9526,-78.0852,-48.6025,-11.2384,,,,
02_S6,04/05/2023,16:59:23.900,-0.0032,-0.9790,0.0903,-0.6180,1.8387,-2.9449,-78.3771,-48.8945,-12.6980,,,,
02_S6,04/05/2023,16:59:24.000,-0.0027,-0.9792,0.0876,-0.8621,1.8387,-2.9068,-78.3771,-48.8945,-12.6980,Inactive,0,24.15,
02_S6,04/05/2023,16:59:24.100,-0.0032,-0.9792,0.0884,-0.4425,1.8616,-2.9068,-77.9392,-49.3323,-11.9682,,,,
02_S6,04/05/2023,16:59:24.200,-0.0029,-0.9792,0.0889,-0.5798,1.8768,-2.9221,-78.3771,-49.4783,-12.6980,,,,
02_S6,04/05/2023,16:59:24.300,-0.0024,-0.9790,0.0923,-0.1602,1.8463,-2.9297,-80.4204,-48.6025,-12.1141,,,,
02_S6,04/05/2023,16:59:24.400,-0.0034,-0.9788,0.0894,-0.9232,1.8921,-2.8915,-78.6690,-48.8945,-12.1141,,,,
02_S6,04/05/2023,16:59:24.500,-0.0027,-0.9788,0.0854,-0.9537,1.8463,-2.8839,-78.6690,-48.8945,-12.1141,,,,
02_S6,04/05/2023,16:59:24.600,-0.0029,-0.9795,0.0869,-0.3738,1.8234,-2.9221,-78.2311,-49.9161,-12.2601,,,,
02_S6,04/05/2023,16:59:24.700,-0.0034,-0.9800,0.0852,-0.2289,1.8463,-2.9526,-77.7933,-49.7702,-11.8222,,,,
02_S6,04/05/2023,16:59:24.800,-0.0039,-0.9797,0.0869,-0.1144,1.8539,-2.9373,-78.3771,-48.0187,-12.1141,,,,
02_S6,04/05/2023,16:59:24.900,-0.0034,-0.9795,0.0884,0.0534,1.8463,-2.9526,-78.6690,-47.7268,-12.1141,,,,
02_S6,04/05/2023,16:59:25.000,-0.0029,-0.9788,0.0869,-0.1297,1.8463,-2.9373,-78.6690,-47.7268,-12.1141,Inactive,0,24.18,
02_S6,04/05/2023,16:59:25.100,-0.0027,-0.9788,0.0867,-0.4730,1.8616,-2.9297,-79.8366,-48.8945,-10.9465,,,,
02_S6,04/05/2023,16:59:25.200,-0.0029,-0.9788,0.0869,0.1068,1.8387,-2.9373,-78.6690,-48.6025,-11.8222,,,,
02_S6,04/05/2023,16:59:25.300,-0.0039,-0.9800,0.0854,-0.5951,1.8616,-2.9068,-79.1069,-48.7485,-11.6763,,,,
02_S6,04/05/2023,16:59:25.400,-0.0024,-0.9797,0.0852,-0.5646,1.8692,-2.9297,-77.9392,-48.7485,-12.2601,,,,
02_S6,04/05/2023,16:59:25.500,-0.0032,-0.9788,0.0881,0.3128,1.8311,-2.9526,-77.2095,-48.8945,-12.4061,,,,
02_S6,04/05/2023,16:59:25.600,-0.0027,-0.9792,0.0903,0.0610,1.8463,-2.9449,-77.2095,-48.8945,-12.4061,,,,
02_S6,04/05/2023,16:59:25.700,-0.0027,-0.9785,0.0908,0.0458,1.8692,-2.9297,-78.6690,-48.8945,-11.5303,,,,
02_S6,04/05/2023,16:59:25.800,-0.0029,-0.9783,0.0903,-0.4730,1.8692,-2.9297,-78.5230,-48.7485,-11.6763,,,,
02_S6,04/05/2023,16:59:25.900,-0.0027,-0.9790,0.0898,-0.2136,1.8387,-2.9221,-78.9609,-48.6025,-10.9465,,,,
02_S6,04/05/2023,16:59:26.000,-0.0032,-0.9783,0.0901,-0.3891,1.8463,-2.9297,-77.9392,-47.2890,-11.6763,Inactive,0,24.16,
02_S6,04/05/2023,16:59:26.100,-0.0039,-0.9785,0.0876,-0.4272,1.8768,-2.9449,-77.9392,-47.2890,-11.6763,,,,
02_S6,04/05/2023,16:59:26.200,-0.0032,-0.9785,0.0876,-0.3204,1.8692,-2.9449,-78.2311,-49.0404,-12.2601,,,,
02_S6,04/05/2023,16:59:26.300,-0.0034,-0.9780,0.0898,-0.2136,1.8616,-2.9221,-78.2311,-48.4566,-11.0925,,,,
02_S6,04/05/2023,16:59:26.400,-0.0032,-0.9785,0.0886,-0.5035,1.8921,-2.9297,-77.6473,-49.3323,-12.2601,,,,
02_S6,04/05/2023,16:59:26.500,-0.0024,-0.9783,0.0903,-0.1144,1.8768,-2.9449,-77.2095,-49.1864,-10.9465,,,,
02_S6,04/05/2023,16:59:26.600,-0.0032,-0.9788,0.0898,-0.0153,1.8692,-2.9373,-77.2095,-49.1864,-10.9465,,,,
02_S6,04/05/2023,16:59:26.700,-0.0034,-0.9800,0.0859,-0.8392,1.8692,-2.9144,-79.5447,-48.6025,-11.5303,,,,
02_S6,04/05/2023,16:59:26.800,-0.0039,-0.9800,0.0886,-0.0992,1.8768,-2.9526,-77.9392,-48.4566,-11.9682,,,,
02_S6,04/05/2023,16:59:26.900,-0.0029,-0.9795,0.0891,-0.3357,1.8616,-2.9373,-78.5230,-48.1647,-11.6763,,,,
02_S6,04/05/2023,16:59:27.000,-0.0037,-0.9795,0.0891,-0.2899,1.8845,-2.9221,-78.6690,-49.1864,-11.8222,Inactive,0,24.11,
02_S6,04/05/2023,16:59:27.100,-0.0024,-0.9790,0.0881,-0.6027,1.8616,-2.8992,-78.6690,-49.1864,-11.8222,,,,
02_S6,04/05/2023,16:59:27.200,-0.0032,-0.9792,0.0889,-0.4196,1.8921,-2.9144,-77.3554,-49.0404,-11.0925,,,,
02_S6,04/05/2023,16:59:27.300,-0.0032,-0.9792,0.0864,-0.8316,1.8692,-2.8839,-77.7933,-49.4783,-10.9465,,,,
02_S6,04/05/2023,16:59:27.400,-0.0039,-0.9778,0.0891,-0.7172,1.8845,-2.9068,-78.5230,-49.0404,-11.0925,,,,
02_S6,04/05/2023,16:59:27.500,-0.0029,-0.9778,0.0889,-0.6790,1.8768,-2.9373,-77.0635,-48.1647,-11.0925,,,,
02_S6,04/05/2023,16:59:27.600,-0.0044,-0.9773,0.0872,-0.7629,1.9150,-2.9373,-77.7933,-48.8945,-11.2384,,,,
02_S6,04/05/2023,16:59:27.700,-0.0029,-0.9788,0.0840,-0.9460,1.8845,-2.9068,-77.7933,-48.8945,-11.2384,,,,
02_S6,04/05/2023,16:59:27.800,-0.0032,-0.9797,0.0840,-0.5417,1.8921,-2.8992,-78.6690,-48.6025,-12.1141,,,,
02_S6,04/05/2023,16:59:27.900,-0.0039,-0.9795,0.0808,-1.3275,1.9073,-2.8839,-77.9392,-48.4566,-11.9682,,,,
02_S6,04/05/2023,16:59:28.000,-0.0029,-0.9802,0.0769,-1.6403,1.9073,-2.8534,-77.2095,-50.3540,-12.1141,Inactive,0,24.16,
02_S6,04/05/2023,16:59:28.100,-0.0027,-0.9795,0.0808,0.1450,1.8616,-2.9221,-79.5447,-49.7702,-11.5303,,,,
02_S6,04/05/2023,16:59:28.200,-0.0044,-0.9807,0.0764,-1.5945,1.8921,-2.8763,-79.5447,-49.7702,-11.5303,,,,
02_S6,04/05/2023,16:59:28.300,-0.0027,-0.9810,0.0747,-0.3052,1.8921,-2.9221,-80.5664,-50.4999,-11.0925,,,,
02_S6,04/05/2023,16:59:28.400,-0.0029,-0.9792,0.0789,-0.2518,1.8845,-2.9221,-80.7123,-49.7702,-9.7789,,,,
02_S6,04/05/2023,16:59:28.500,-0.0034,-0.9792,0.0786,-1.0300,1.8768,-2.8992,-78.6690,-49.7702,-10.0708,,,,
02_S6,04/05/2023,16:59:28.600,-0.0032,-0.9792,0.0815,1.9989,1.8234,-3.0212,-78.9609,-50.6459,-12.4061,,,,
02_S6,04/05/2023,16:59:28.700,-0.0029,-0.9771,0.0918,2.9144,1.8005,-3.0670,-78.9609,-50.6459,-12.4061,,,,
02_S6,04/05/2023,16:59:28.800,-0.0024,-0.9805,0.0813,-3.2272,1.9302,-2.8305,-77.6473,-54.0028,-12.8439,,,,
02_S6,04/05/2023,16:59:28.900,-0.0032,-0.9805,0.0784,-1.2817,1.8616,-2.8992,-75.3121,-63.3439,-16.3468,,,,
02_S6,04/05/2023,16:59:29.000,-0.0022,-0.9790,0.0808,-1.1520,1.8845,-2.9144,-73.8525,-70.9334,-46.9971,Inactive,0,24.15,
02_S6,04/05/2023,16:59:29.100,-0.0024,-0.9792,0.0786,-1.5488,1.9150,-2.8915,-85.0909,-65.8251,-92.3886,,,,
02_S6,04/05/2023,16:59:29.200,-0.0029,-0.9797,0.0769,0.2747,1.8463,-2.9373,-109.6112,-32.8396,-158.0677,,,,
02_S6,04/05/2023,16:59:29.300,-0.0037,-0.9788,0.0779,0.1221,1.8387,-2.9221,-109.6112,-32.8396,-158.0677,,,,
02_S6,04/05/2023,16:59:29.400,-0.0039,-0.9795,0.0752,-1.3885,1.8768,-2.8915,-114.7195,-25.9797,-173.9767,,,,
02_S6,04/05/2023,16:59:29.500,-0.0034,-0.9797,0.0754,-0.6180,1.8616,-2.9144,-108.4435,-31.9638,-172.6631,,,,
02_S6,04/05/2023,16:59:29.600,-0.0029,-0.9802,0.0735,-0.4959,1.8768,-2.9373,-128.4392,-7.5896,-184.1934,,,,
02_S6,04/05/2023,16:59:29.700,-0.0029,-0.9790,0.0776,0.2823,1.8616,-2.9526,-190.9073,45.2456,-262.7165,,,,
02_S6,04/05/2023,16:59:29.800,-0.0037,-0.9792,0.0750,-1.2131,1.8845,-2.9068,-190.9073,45.2456,-262.7165,,,,
02_S6,04/05/2023,16:59:29.900,-0.0039,-0.9807,0.0710,-1.4267,1.8921,-2.8763,-303.2916,49.9161,-318.4708,,,,
02_S6,04/05/2023,16:59:30.000,-0.0039,-0.9807,0.0708,-1.8616,1.8997,-2.8687,-435.2336,30.3583,-510.8376,Inactive,0,24.16,
02_S6,04/05/2023,16:59:30.100,-0.0039,-0.9797,0.0696,-1.4038,1.8921,-2.8687,-576.0789,67.5765,-1041.0870,,,,
02_S6,04/05/2023,16:59:30.200,-0.0037,-0.9795,0.0691,-0.9689,1.8768,-2.8839,-989.1275,260.8191,-1854.9243,,,,
02_S6,04/05/2023,16:59:30.300,-0.0034,-0.9797,0.0688,-0.2365,1.8845,-2.9449,-989.1275,260.8191,-1854.9243,,,,TIMEMARK!
02_S6,04/05/2023,16:59:30.400,-0.0032,-0.9792,0.0708,0.2670,1.8463,-2.9678,-1806.4677,370.5762,-2813.8395,,,,
02_S6,04/05/2023,16:59:30.500,-0.0044,-0.9805,0.0693,-0.4654,1.8768,-2.9221,-1846.8969,358.4620,-2935.1269,,,,
02_S6,04/05/2023,16:59:30.600,-0.0037,-0.9805,0.0696,-0.1907,1.8616,-2.9221,-1855.6541,407.2105,-2926.3697,,,,
02_S6,04/05/2023,16:59:30.700,-0.0039,-0.9802,0.0669,-0.6790,1.8692,-2.9221,-1882.9474,448.8073,-2899.0764,,,,
02_S6,04/05/2023,16:59:30.800,-0.0042,-0.9805,0.0659,0.0381,1.8387,-2.9297,-1882.9474,448.8073,-2899.0764,,,,
02_S6,04/05/2023,16:59:30.900,-0.0046,-0.9783,0.0710,0.2060,1.8463,-2.9526,-1871.7090,480.7712,-2910.3148,,,,
02_S6,04/05/2023,16:59:31.000,-0.0034,-0.9792,0.0698,-0.6332,1.8845,-2.9144,-1881.3419,504.7075,-2900.6818,Inactive,0,24.17,
02_S6,04/05/2023,16:59:31.100,-0.0042,-0.9805,0.0681,-1.0757,1.8768,-2.8915,-1871.1252,516.3838,-2910.8986,,,,
02_S6,04/05/2023,16:59:31.200,-0.0037,-0.9797,0.0696,-0.2213,1.8539,-2.9449,-1859.0110,529.3737,-2923.0127,,,,
02_S6,04/05/2023,16:59:31.300,-0.0032,-0.9797,0.0720,2.7008,1.8082,-3.0518,-1713.2034,576.5167,-3068.8204,,,,
02_S6,04/05/2023,16:59:31.400,-0.0034,-0.9790,0.0801,2.3804,1.8082,-3.0441,-1713.2034,576.5167,-3068.8204,,,,
02_S6,04/05/2023,16:59:31.500,-0.0037,-0.9771,0.0759,-4.7455,1.9913,-2.7618,-1667.0820,577.9763,-3114.9417,,,,
02_S6,04/05/2023,16:59:31.600,-0.0039,-0.9824,0.0623,-3.2578,1.9455,-2.8305,-108.8814,-127.5634,-222.1414,,,,
02_S6,04/05/2023,16:59:31.700,-0.0042,-0.9810,0.0671,1.3657,1.8082,-2.9678,-72.8308,-49.1864,-10.6546,,,,
02_S6,04/05/2023,16:59:31.800,-0.0042,-0.9797,0.0706,0.4807,1.8158,-2.9449,-76.4797,-40.8670,-2.3353,,,,
02_S6,04/05/2023,16:59:31.900,-0.0042,-0.9795,0.0686,-1.7319,1.8845,-2.8381,-76.4797,-40.8670,-2.3353,,,,
02_S6,04/05/2023,16:59:32.000,-0.0044,-0.9802,0.0627,-1.8539,1.9455,-2.8458,-78.9609,-32.2557,-6.8598,Inactive,0,24.17,
02_S6,04/05/2023,16:59:32.100,-0.0044,-0.9814,0.0615,-0.3357,1.8692,-2.9221,-85.2369,-37.0722,-10.5087,,,,
02_S6,04/05/2023,16:59:32.200,-0.0029,-0.9783,0.0715,1.5030,1.8082,-2.9907,-84.3612,-41.4508,-12.8439,,,,
02_S6,04/05/2023,16:59:32.300,-0.0042,-0.9810,0.0652,-0.6638,1.8768,-2.9144,-83.1936,-44.0780,-12.5520,,,,
02_S6,04/05/2023,16:59:32.400,-0.0039,-0.9785,0.0762,3.8986,1.7853,-3.0746,-83.1936,-44.0780,-12.5520,,,,
02_S6,04/05/2023,16:59:32.500,-0.0044,-0.9805,0.0713,-1.2207,1.8845,-2.8992,-85.2369,-44.3699,-12.8439,,,,
02_S6,04/05/2023,16:59:32.600,-0.0032,-0.9810,0.0684,-1.3580,1.8616,-2.8915,-82.9016,-43.2023,-13.4277,,,,
02_S6,04/05/2023,16:59:32.700,-0.0039,-0.9797,0.0752,1.5411,1.8234,-2.9755,-84.0693,-44.6618,-11.3844,,,,
02_S6,04/05/2023,16:59:32.800,-0.0037,-0.9812,0.0688,-1.7776,1.8997,-2.8381,-83.4855,-44.6618,-11.0925,,,,
02_S6,04/05/2023,16:59:32.900,-0.0044,-0.9810,0.0713,0.3891,1.8387,-2.9221,-83.4855,-44.6618,-11.0925,,,,
02_S6,04/05/2023,16:59:33.000,0.0000,0.0000,0.0000,0.0000,0.0000,0.0000,0.0000,0.0000,0.0000,Inactive,,21,Power off command received.
