TagID,Date,Time,accX,accY,accZ,gyroX,gyroY,gyroZ,compX,compY,compZ,Activity,Depth,Temp. (?C),Metadata
02_S2,04/05/2023,16:59:14.000,0.9819,-0.0115,0.0337,0.2823,0.4883,-1.3504,42.4725,-75.4580,12.9899,Active,0,-397.7,
02_S2,04/05/2023,16:59:14.100,1.0227,-0.0137,0.0327,0.1068,1.6098,-2.4338,42.6185,-74.7282,12.8439,,,,
02_S2,04/05/2023,16:59:14.200,1.0247,-0.0134,0.0337,0.1144,1.7090,-2.4796,42.3265,-75.3121,11.3844,,,,
02_S2,04/05/2023,16:59:14.300,1.0244,-0.0134,0.0339,0.1068,1.7471,-2.4796,40.8670,-75.3121,13.1358,,,,
02_S2,04/05/2023,16:59:14.400,1.0244,-0.0134,0.0339,0.1068,1.7242,-2.4796,40.8670,-75.3121,13.1358,,,,
02_S2,04/05/2023,16:59:14.500,1.0242,-0.0132,0.0342,0.1068,1.6937,-2.4796,40.8670,-75.3121,13.1358,,,,
02_S2,04/05/2023,16:59:14.600,1.0239,-0.0134,0.0327,0.0992,1.6861,-2.4948,42.6185,-74.1444,12.8439,,,,
02_S2,04/05/2023,16:59:14.700,1.0239,-0.0139,0.0325,0.1068,1.7090,-2.4872,41.0130,-74.5823,13.5737,,,,
02_S2,04/05/2023,16:59:14.800,1.0249,-0.0129,0.0344,0.0839,1.7319,-2.4796,41.4508,-75.8959,13.1358,,,,
02_S2,04/05/2023,16:59:14.900,1.0239,-0.0137,0.0356,0.0992,1.7166,-2.4719,41.4508,-75.0202,13.4277,,,,
02_S2,04/05/2023,16:59:15.000,1.0242,-0.0137,0.0337,0.1068,1.7242,-2.4948,40.2832,-75.0202,14.0115,Inactive,0,20.84,
02_S2,04/05/2023,16:59:15.100,1.0247,-0.0144,0.0347,0.0763,1.7090,-2.4872,40.2832,-75.0202,14.0115,,,,
02_S2,04/05/2023,16:59:15.200,1.0239,-0.0139,0.0330,0.0763,1.7166,-2.5024,41.7427,-75.3121,13.1358,,,,
02_S2,04/05/2023,16:59:15.300,1.0249,-0.0134,0.0352,0.1068,1.6708,-2.4948,42.0346,-75.8959,13.1358,,,,
02_S2,04/05/2023,16:59:15.400,1.0244,-0.0139,0.0347,0.0916,1.6937,-2.4948,40.2832,-75.0202,13.1358,,,,
02_S2,04/05/2023,16:59:15.500,1.0242,-0.0134,0.0339,0.0916,1.6708,-2.4796,41.5968,-73.9985,12.4061,,,,
02_S2,04/05/2023,16:59:15.600,1.0254,-0.0127,0.0325,0.1144,1.7090,-2.4872,41.5968,-73.9985,12.4061,,,,
02_S2,04/05/2023,16:59:15.700,1.0254,-0.0134,0.0337,0.1221,1.6479,-2.5024,42.1806,-74.8742,13.8656,,,,
02_S2,04/05/2023,16:59:15.800,1.0244,-0.0134,0.0349,0.0992,1.6937,-2.4948,42.0346,-74.4363,13.7196,,,,
02_S2,04/05/2023,16:59:15.900,1.0242,-0.0129,0.0334,0.0992,1.6785,-2.5101,42.7644,-73.9985,13.2818,,,,
02_S2,04/05/2023,16:59:16.000,1.0242,-0.0132,0.0347,0.1144,1.7319,-2.4643,42.9104,-73.5606,13.1358,Inactive,0,20.84,
02_S2,04/05/2023,16:59:16.100,1.0247,-0.0142,0.0332,0.0992,1.7166,-2.4948,42.9104,-73.5606,13.1358,,,,
02_S2,04/05/2023,16:59:16.200,1.0242,-0.0139,0.0342,0.1068,1.6937,-2.4872,42.0346,-75.8959,13.4277,,,,
02_S2,04/05/2023,16:59:16.300,1.0239,-0.0139,0.0330,0.1144,1.6861,-2.4948,41.1589,-75.0202,14.0115,,,,
02_S2,04/05/2023,16:59:16.400,1.0242,-0.0146,0.0344,0.0916,1.7166,-2.4948,41.7427,-75.0202,14.5954,,,,
02_S2,04/05/2023,16:59:16.500,1.0239,-0.0142,0.0354,0.1144,1.7014,-2.4948,40.8670,-73.2687,13.1358,,,,
02_S2,04/05/2023,16:59:16.600,1.0242,-0.0142,0.0342,0.1068,1.7014,-2.4719,40.8670,-73.2687,13.1358,,,,
02_S2,04/05/2023,16:59:16.700,1.0244,-0.0144,0.0347,0.0992,1.7014,-2.4948,42.0346,-73.8525,14.0115,,,,
02_S2,04/05/2023,16:59:16.800,1.0239,-0.0137,0.0349,0.0839,1.6632,-2.5024,42.0346,-75.3121,13.1358,,,,
02_S2,04/05/2023,16:59:16.900,1.0239,-0.0132,0.0352,0.1068,1.6708,-2.4948,42.3265,-74.4363,13.7196,,,,
02_S2,04/05/2023,16:59:17.000,1.0247,-0.0139,0.0349,0.1068,1.6785,-2.5101,42.6185,-76.1878,13.1358,Inactive,0,20.88,
02_S2,04/05/2023,16:59:17.100,1.0251,-0.0142,0.0334,0.0916,1.7090,-2.4796,42.6185,-74.4363,12.2601,,,,
02_S2,04/05/2023,16:59:17.200,1.0242,-0.0134,0.0342,0.0916,1.7319,-2.4796,42.6185,-74.4363,12.2601,,,,
02_S2,04/05/2023,16:59:17.300,1.0247,-0.0134,0.0342,0.0839,1.7014,-2.5024,43.0563,-76.0418,13.5737,,,,
02_S2,04/05/2023,16:59:17.400,1.0237,-0.0142,0.0337,0.1068,1.6937,-2.4948,42.7644,-75.1661,13.8656,,,,
02_S2,04/05/2023,16:59:17.500,1.0242,-0.0132,0.0349,0.1297,1.7319,-2.4948,42.3265,-74.4363,12.8439,,,,
02_S2,04/05/2023,16:59:17.600,1.0242,-0.0139,0.0342,0.1068,1.7014,-2.4948,42.0346,-74.7282,12.2601,,,,
02_S2,04/05/2023,16:59:17.700,1.0242,-0.0139,0.0334,0.0916,1.6937,-2.5101,42.0346,-74.7282,12.2601,,,,
02_S2,04/05/2023,16:59:17.800,1.0239,-0.0134,0.0339,0.1068,1.7014,-2.4872,41.7427,-75.3121,12.8439,,,,
02_S2,04/05/2023,16:59:17.900,1.0237,-0.0134,0.0347,0.1221,1.6937,-2.4719,42.4725,-74.5823,12.6980,,,,
02_S2,04/05/2023,16:59:18.000,1.0234,-0.0142,0.0352,0.1450,1.7090,-2.5101,42.3265,-74.1444,13.7196,Inactive,0,20.89,
02_S2,04/05/2023,16:59:18.100,1.0239,-0.0142,0.0342,0.1068,1.6861,-2.5253,42.9104,-74.4363,13.4277,,,,
02_S2,04/05/2023,16:59:18.200,1.0242,-0.0137,0.0330,0.0916,1.7166,-2.4948,42.9104,-74.4363,13.4277,,,,
02_S2,04/05/2023,16:59:18.300,1.0244,-0.0146,0.0339,0.0916,1.7166,-2.4948,42.6185,-74.4363,12.8439,,,,
02_S2,04/05/2023,16:59:18.400,1.0244,-0.0137,0.0354,0.1068,1.7014,-2.4872,42.6185,-75.6040,14.0115,,,,
02_S2,04/05/2023,16:59:18.500,1.0242,-0.0132,0.0352,0.1297,1.7014,-2.4872,41.4508,-74.7282,13.7196,,,,
02_S2,04/05/2023,16:59:18.600,1.0244,-0.0137,0.0347,0.1144,1.6785,-2.5024,42.1806,-74.8742,12.9899,,,,
02_S2,04/05/2023,16:59:18.700,1.0239,-0.0139,0.0339,0.0992,1.7166,-2.4872,42.1806,-74.8742,12.9899,,,,
02_S2,04/05/2023,16:59:18.800,1.0242,-0.0139,0.0354,0.1068,1.7166,-2.4948,40.8670,-74.7282,12.8439,,,,
02_S2,04/05/2023,16:59:18.900,1.0242,-0.0134,0.0337,0.1144,1.6861,-2.5253,41.0130,-74.8742,13.2818,,,,
02_S2,04/05/2023,16:59:19.000,1.0237,-0.0139,0.0334,0.1144,1.7242,-2.4948,41.4508,-74.7282,14.3035,Inactive,0,20.9,
02_S2,04/05/2023,16:59:19.100,1.0237,-0.0139,0.0356,0.0916,1.7242,-2.5101,42.4725,-75.4580,12.9899,,,,
02_S2,04/05/2023,16:59:19.200,1.0237,-0.0139,0.0349,0.0763,1.7242,-2.5024,42.3265,-75.3121,14.3035,,,,
02_S2,04/05/2023,16:59:19.300,1.0237,-0.0134,0.0344,0.0992,1.6937,-2.4948,42.3265,-75.3121,14.3035,,,,
02_S2,04/05/2023,16:59:19.400,1.0232,-0.0129,0.0330,0.0992,1.7166,-2.4872,42.1806,-74.2904,13.2818,,,,
02_S2,04/05/2023,16:59:19.500,1.0239,-0.0137,0.0339,0.0916,1.6785,-2.4872,41.7427,-73.8525,11.9682,,,,
02_S2,04/05/2023,16:59:19.600,1.0234,-0.0139,0.0339,0.0992,1.7242,-2.5024,42.1806,-74.2904,14.1575,,,,
02_S2,04/05/2023,16:59:19.700,1.0237,-0.0154,0.0356,0.1068,1.7242,-2.4872,42.0346,-74.1444,14.0115,,,,
02_S2,04/05/2023,16:59:19.800,1.0234,-0.0146,0.0337,0.1221,1.7090,-2.4948,42.0346,-74.1444,14.0115,,,,
02_S2,04/05/2023,16:59:19.900,1.0244,-0.0134,0.0344,0.1144,1.7242,-2.5101,42.6185,-75.0202,13.4277,,,,
02_S2,04/05/2023,16:59:20.000,1.0239,-0.0129,0.0342,0.1068,1.7319,-2.5101,41.7427,-74.7282,13.4277,Inactive,0,20.9,
02_S2,04/05/2023,16:59:20.100,1.0237,-0.0137,0.0344,0.1068,1.7319,-2.4948,43.4942,-75.0202,13.1358,,,,
02_S2,04/05/2023,16:59:20.200,1.0234,-0.0134,0.0347,0.1068,1.6937,-2.4796,42.7644,-75.4580,12.9899,,,,
02_S2,04/05/2023,16:59:20.300,1.0242,-0.0134,0.0317,0.0839,1.7166,-2.4796,42.7644,-75.4580,12.9899,,,,
02_S2,04/05/2023,16:59:20.400,1.0244,-0.0142,0.0344,0.0992,1.7166,-2.4719,42.3265,-73.8525,13.7196,,,,
02_S2,04/05/2023,16:59:20.500,1.0242,-0.0134,0.0354,0.0839,1.7166,-2.4796,42.1806,-73.9985,13.2818,,,,
02_S2,04/05/2023,16:59:20.600,1.0239,-0.0132,0.0347,0.1144,1.7090,-2.4872,42.7644,-75.4580,12.9899,,,,
02_S2,04/05/2023,16:59:20.700,1.0239,-0.0137,0.0339,0.1144,1.6937,-2.4872,42.3265,-74.4363,13.4277,,,,
02_S2,04/05/2023,16:59:20.800,1.0242,-0.0134,0.0339,0.1144,1.7319,-2.4719,42.3265,-74.4363,13.4277,,,,
02_S2,04/05/2023,16:59:20.900,1.0239,-0.0142,0.0347,0.1297,1.7242,-2.4948,42.6185,-75.8959,13.4277,,,,
02_S2,04/05/2023,16:59:21.000,1.0242,-0.0139,0.0349,0.0916,1.7319,-2.4948,42.0346,-75.8959,12.5520,Inactive,0,20.93,
02_S2,04/05/2023,16:59:21.100,1.0247,-0.0137,0.0342,0.1068,1.7319,-2.4643,42.6185,-75.8959,12.8439,,,,
02_S2,04/05/2023,16:59:21.200,1.0242,-0.0132,0.0349,0.1297,1.7319,-2.4872,42.4725,-74.8742,12.9899,,,,
02_S2,04/05/2023,16:59:21.300,1.0242,-0.0139,0.0347,0.0992,1.7014,-2.5024,41.8887,-73.9985,12.6980,,,,
02_S2,04/05/2023,16:59:21.400,1.0239,-0.0142,0.0342,0.0992,1.7319,-2.5024,41.8887,-73.9985,12.6980,,,,
02_S2,04/05/2023,16:59:21.500,1.0239,-0.0137,0.0359,0.0992,1.7166,-2.5101,43.3482,-74.8742,12.9899,,,,
02_S2,04/05/2023,16:59:21.600,1.0242,-0.0137,0.0344,0.0839,1.7242,-2.5101,42.0346,-74.7282,13.4277,,,,
02_S2,04/05/2023,16:59:21.700,1.0239,-0.0139,0.0349,0.0916,1.7090,-2.4948,42.3265,-73.8525,13.4277,,,,
02_S2,04/05/2023,16:59:21.800,1.0239,-0.0146,0.0339,0.0916,1.7319,-2.5101,42.7644,-73.7066,14.1575,,,,
02_S2,04/05/2023,16:59:21.900,1.0239,-0.0134,0.0342,0.1144,1.7319,-2.5101,42.7644,-73.7066,14.1575,,,,
02_S2,04/05/2023,16:59:22.000,1.0242,-0.0139,0.0347,0.0687,1.7014,-2.4796,41.1589,-75.0202,14.5954,Inactive,0,20.91,
02_S2,04/05/2023,16:59:22.100,1.0244,-0.0142,0.0354,0.0687,1.7166,-2.5024,42.3265,-74.7282,12.5520,,,,
02_S2,04/05/2023,16:59:22.200,1.0234,-0.0139,0.0361,0.0839,1.6937,-2.4948,42.3265,-74.7282,13.4277,,,,
02_S2,04/05/2023,16:59:22.300,1.0237,-0.0134,0.0347,0.0916,1.6861,-2.5024,42.1806,-74.5823,12.6980,,,,
02_S2,04/05/2023,16:59:22.400,1.0229,-0.0134,0.0342,0.0916,1.7014,-2.4948,42.1806,-74.5823,12.6980,,,,
02_S2,04/05/2023,16:59:22.500,1.0244,-0.0144,0.0347,0.1068,1.7166,-2.5024,41.5968,-75.1661,14.1575,,,,
02_S2,04/05/2023,16:59:22.600,1.0242,-0.0139,0.0349,0.1144,1.7471,-2.5024,42.1806,-75.4580,13.2818,,,,
02_S2,04/05/2023,16:59:22.700,1.0237,-0.0134,0.0342,0.1144,1.7395,-2.4948,42.3265,-74.1444,12.5520,,,,
02_S2,04/05/2023,16:59:22.800,1.0239,-0.0139,0.0342,0.0763,1.7548,-2.5024,42.0346,-75.3121,13.1358,,,,
02_S2,04/05/2023,16:59:22.900,1.0239,-0.0139,0.0332,0.1144,1.7319,-2.5024,42.0346,-75.3121,13.1358,,,,
02_S2,04/05/2023,16:59:23.000,1.0239,-0.0137,0.0342,0.0839,1.7242,-2.4796,42.9104,-74.1444,13.1358,Inactive,0,20.94,
02_S2,04/05/2023,16:59:23.100,1.0237,-0.0139,0.0344,0.0763,1.7395,-2.5101,41.5968,-74.2904,12.9899,,,,
02_S2,04/05/2023,16:59:23.200,1.0239,-0.0139,0.0344,0.0763,1.6937,-2.5101,43.3482,-73.9985,14.1575,,,,
02_S2,04/05/2023,16:59:23.300,1.0237,-0.0146,0.0332,0.1144,1.7014,-2.5101,43.2023,-74.4363,13.4277,,,,
02_S2,04/05/2023,16:59:23.400,1.0232,-0.0142,0.0352,0.0992,1.7166,-2.4872,40.8670,-74.4363,13.7196,,,,
02_S2,04/05/2023,16:59:23.500,1.0234,-0.0144,0.0334,0.1221,1.7471,-2.4948,40.8670,-74.4363,13.7196,,,,
02_S2,04/05/2023,16:59:23.600,1.0247,-0.0134,0.0337,0.0839,1.7395,-2.4796,42.1806,-74.5823,14.1575,,,,
02_S2,04/05/2023,16:59:23.700,1.0239,-0.0139,0.0344,0.1068,1.7090,-2.5024,42.3265,-75.6040,13.1358,,,,
02_S2,04/05/2023,16:59:23.800,1.0234,-0.0139,0.0337,0.0992,1.7090,-2.4872,42.7644,-73.7066,13.2818,,,,
02_S2,04/05/2023,16:59:23.900,1.0237,-0.0139,0.0349,0.0992,1.7090,-2.5101,42.4725,-75.1661,14.1575,,,,
02_S2,04/05/2023,16:59:24.000,1.0247,-0.0125,0.0344,0.1068,1.7090,-2.5177,42.4725,-75.1661,14.1575,Inactive,0,20.94,
02_S2,04/05/2023,16:59:24.100,1.0237,-0.0139,0.0347,0.1144,1.7166,-2.5101,42.0346,-75.0202,13.4277,,,,
02_S2,04/05/2023,16:59:24.200,1.0242,-0.0132,0.0344,0.0916,1.7319,-2.5024,43.2023,-74.7282,14.3035,,,,
02_S2,04/05/2023,16:59:24.300,1.0232,-0.0146,0.0352,0.1297,1.7014,-2.5177,41.5968,-75.4580,12.9899,,,,
02_S2,04/05/2023,16:59:24.400,1.0242,-0.0139,0.0349,0.1450,1.7166,-2.5101,42.4725,-74.8742,14.7413,,,,
02_S2,04/05/2023,16:59:24.500,1.0237,-0.0139,0.0354,0.1068,1.7395,-2.4948,42.4725,-74.8742,14.7413,,,,
02_S2,04/05/2023,16:59:24.600,1.0239,-0.0137,0.0352,0.1068,1.7395,-2.4872,41.8887,-75.1661,12.9899,,,,
02_S2,04/05/2023,16:59:24.700,1.0242,-0.0139,0.0339,0.1144,1.7319,-2.5101,41.7427,-74.1444,14.5954,,,,
02_S2,04/05/2023,16:59:24.800,1.0232,-0.0132,0.0347,0.1068,1.7395,-2.5330,43.0563,-74.8742,13.2818,,,,
02_S2,04/05/2023,16:59:24.900,1.0232,-0.0134,0.0347,0.1068,1.7242,-2.5101,43.2023,-74.4363,14.3035,,,,
02_S2,04/05/2023,16:59:25.000,1.0232,-0.0134,0.0342,0.0687,1.6785,-2.5253,43.2023,-74.4363,14.3035,Inactive,0,20.96,
02_S2,04/05/2023,16:59:25.100,1.0239,-0.0132,0.0339,0.0992,1.7014,-2.4948,42.7644,-74.2904,14.7413,,,,
02_S2,04/05/2023,16:59:25.200,1.0232,-0.0134,0.0339,0.1144,1.7242,-2.4872,42.6185,-74.4363,14.5954,,,,
02_S2,04/05/2023,16:59:25.300,1.0239,-0.0139,0.0344,0.0916,1.7014,-2.4872,42.6185,-74.1444,14.0115,,,,
02_S2,04/05/2023,16:59:25.400,1.0242,-0.0139,0.0354,0.0916,1.7014,-2.4872,41.0130,-74.2904,13.2818,,,,
02_S2,04/05/2023,16:59:25.500,1.0234,-0.0142,0.0354,0.0916,1.7166,-2.5024,41.5968,-76.0418,13.8656,,,,
02_S2,04/05/2023,16:59:25.600,1.0237,-0.0142,0.0352,0.0687,1.7242,-2.5330,41.5968,-76.0418,13.8656,,,,
02_S2,04/05/2023,16:59:25.700,1.0237,-0.0139,0.0344,0.0839,1.7319,-2.5101,41.1589,-74.4363,12.8439,,,,
02_S2,04/05/2023,16:59:25.800,1.0237,-0.0132,0.0327,0.1068,1.6937,-2.5024,40.8670,-74.1444,14.0115,,,,
02_S2,04/05/2023,16:59:25.900,1.0227,-0.0127,0.0334,0.1068,1.7319,-2.4719,42.3265,-74.4363,13.1358,,,,
02_S2,04/05/2023,16:59:26.000,1.0239,-0.0134,0.0354,0.1144,1.7319,-2.4796,42.1806,-74.5823,13.8656,Inactive,0,20.97,
02_S2,04/05/2023,16:59:26.100,1.0234,-0.0137,0.0325,0.0992,1.6861,-2.4948,42.1806,-74.5823,13.8656,,,,
02_S2,04/05/2023,16:59:26.200,1.0242,-0.0137,0.0352,0.0916,1.6937,-2.4872,42.1806,-75.1661,12.4061,,,,
02_S2,04/05/2023,16:59:26.300,1.0239,-0.0129,0.0334,0.1068,1.7166,-2.5177,42.7644,-74.8742,14.7413,,,,
02_S2,04/05/2023,16:59:26.400,1.0234,-0.0129,0.0354,0.0839,1.7395,-2.5177,42.0346,-75.0202,13.1358,,,,
02_S2,04/05/2023,16:59:26.500,1.0237,-0.0134,0.0359,0.0763,1.7319,-2.5101,42.4725,-74.5823,13.2818,,,,
02_S2,04/05/2023,16:59:26.600,1.0239,-0.0144,0.0349,0.0839,1.7166,-2.5024,42.4725,-74.5823,13.2818,,,,
02_S2,04/05/2023,16:59:26.700,1.0242,-0.0137,0.0344,0.0916,1.7090,-2.4948,42.4725,-74.8742,12.9899,,,,
02_S2,04/05/2023,16:59:26.800,1.0239,-0.0139,0.0352,0.0839,1.6937,-2.5024,42.4725,-73.9985,14.1575,,,,
02_S2,04/05/2023,16:59:26.900,1.0237,-0.0134,0.0344,0.1297,1.7395,-2.5177,42.1806,-74.8742,13.2818,,,,
02_S2,04/05/2023,16:59:27.000,1.0244,-0.0132,0.0347,0.0992,1.7242,-2.5024,43.0563,-73.7066,13.2818,Inactive,0,20.94,
02_S2,04/05/2023,16:59:27.100,1.0237,-0.0134,0.0337,0.0992,1.7166,-2.4948,43.0563,-73.7066,13.2818,,,,
02_S2,04/05/2023,16:59:27.200,1.0239,-0.0137,0.0347,0.0992,1.7242,-2.4872,42.1806,-75.4580,12.9899,,,,
02_S2,04/05/2023,16:59:27.300,1.0239,-0.0134,0.0352,0.0992,1.7242,-2.5253,41.1589,-74.1444,13.4277,,,,
02_S2,04/05/2023,16:59:27.400,1.0244,-0.0134,0.0342,0.0992,1.7090,-2.5101,41.4508,-74.1444,13.7196,,,,
02_S2,04/05/2023,16:59:27.500,1.0237,-0.0144,0.0352,0.1221,1.7395,-2.4948,42.1806,-73.9985,14.1575,,,,
02_S2,04/05/2023,16:59:27.600,1.0237,-0.0149,0.0337,0.1221,1.7166,-2.5024,42.1806,-74.8742,12.6980,,,,
02_S2,04/05/2023,16:59:27.700,1.0237,-0.0134,0.0325,0.1144,1.6937,-2.5177,42.1806,-74.8742,12.6980,,,,
02_S2,04/05/2023,16:59:27.800,1.0237,-0.0134,0.0342,0.0763,1.7014,-2.5101,42.6185,-75.6040,13.7196,,,,
02_S2,04/05/2023,16:59:27.900,1.0237,-0.0139,0.0339,0.1144,1.7090,-2.5253,41.3049,-75.1661,13.2818,,,,
02_S2,04/05/2023,16:59:28.000,1.0244,-0.0146,0.0354,0.1144,1.7242,-2.5177,42.1806,-74.8742,13.2818,Inactive,0,20.99,
02_S2,04/05/2023,16:59:28.100,1.0242,-0.0132,0.0344,0.0992,1.7319,-2.5177,42.4725,-74.2904,13.8656,,,,
02_S2,04/05/2023,16:59:28.200,1.0244,-0.0142,0.0344,0.0916,1.6861,-2.5330,42.4725,-74.2904,13.8656,,,,
02_S2,04/05/2023,16:59:28.300,1.0242,-0.0129,0.0337,0.0992,1.7166,-2.5024,42.6185,-75.0202,13.7196,,,,
02_S2,04/05/2023,16:59:28.400,1.0239,-0.0144,0.0352,0.0839,1.6861,-2.5330,42.1806,-75.1661,13.2818,,,,
02_S2,04/05/2023,16:59:28.500,1.0239,-0.0144,0.0347,0.0916,1.7242,-2.4872,42.7644,-75.1661,13.2818,,,,
02_S2,04/05/2023,16:59:28.600,1.0229,-0.0144,0.0349,0.1068,1.7090,-2.4872,42.4725,-75.4580,13.8656,,,,
02_S2,04/05/2023,16:59:28.700,1.0237,-0.0142,0.0352,0.1144,1.7242,-2.5024,42.4725,-75.4580,13.8656,,,,
02_S2,04/05/2023,16:59:28.800,1.0239,-0.0146,0.0342,0.1144,1.7090,-2.4872,41.7427,-74.7282,12.8439,,,,
02_S2,04/05/2023,16:59:28.900,1.0239,-0.0134,0.0352,0.1144,1.7166,-2.5101,43.0563,-75.4580,12.6980,,,,
02_S2,04/05/2023,16:59:29.000,1.0239,-0.0144,0.0361,0.0916,1.7242,-2.4872,42.4725,-74.5823,13.5737,Inactive,0,21,
02_S2,04/05/2023,16:59:29.100,1.0232,-0.0144,0.0349,0.0839,1.7242,-2.5024,41.7427,-74.4363,12.8439,,,,
02_S2,04/05/2023,16:59:29.200,1.0229,-0.0156,0.0347,0.0763,1.7242,-2.4948,41.8887,-74.5823,13.2818,,,,
02_S2,04/05/2023,16:59:29.300,1.0239,-0.0142,0.0349,0.0992,1.7090,-2.4948,41.8887,-74.5823,13.2818,,,,
02_S2,04/05/2023,16:59:29.400,1.0242,-0.0142,0.0352,0.1068,1.7166,-2.5024,41.7427,-74.1444,14.0115,,,,
02_S2,04/05/2023,16:59:29.500,1.0239,-0.0144,0.0356,0.1068,1.6861,-2.5024,41.8887,-74.5823,13.8656,,,,
02_S2,04/05/2023,16:59:29.600,1.0237,-0.0144,0.0354,0.0763,1.6708,-2.4872,41.4508,-74.1444,13.1358,,,,
02_S2,04/05/2023,16:59:29.700,1.0237,-0.0144,0.0347,0.0610,1.7090,-2.4872,41.7427,-73.5606,13.4277,,,,
02_S2,04/05/2023,16:59:29.800,1.0239,-0.0149,0.0344,0.0916,1.7090,-2.4948,41.7427,-73.5606,13.4277,,,,
02_S2,04/05/2023,16:59:29.900,1.0234,-0.0137,0.0356,0.0916,1.7166,-2.4948,43.3482,-74.2904,13.2818,,,,
02_S2,04/05/2023,16:59:30.000,1.0242,-0.0134,0.0342,0.0992,1.7548,-2.4948,42.9104,-74.7282,12.2601,Inactive,0,21.03,
02_S2,04/05/2023,16:59:30.100,1.0242,-0.0142,0.0349,0.1068,1.6937,-2.5024,42.7644,-75.4580,13.5737,,,,
02_S2,04/05/2023,16:59:30.200,1.0234,-0.0144,0.0349,0.1144,1.6937,-2.5330,42.4725,-74.5823,12.6980,,,,
02_S2,04/05/2023,16:59:30.300,1.0242,-0.0144,0.0337,0.0763,1.7014,-2.4948,42.4725,-74.5823,12.6980,,,,
02_S2,04/05/2023,16:59:30.400,1.0239,-0.0137,0.0349,0.0839,1.6632,-2.5101,42.3265,-74.7282,12.5520,,,,
02_S2,04/05/2023,16:59:30.500,1.0234,-0.0142,0.0334,0.1068,1.6785,-2.4948,42.9104,-75.0202,13.1358,,,,
02_S2,04/05/2023,16:59:30.600,1.0244,-0.0142,0.0339,0.0992,1.7090,-2.5330,42.3265,-74.4363,13.7196,,,,
02_S2,04/05/2023,16:59:30.700,1.0239,-0.0137,0.0352,0.0992,1.7166,-2.5330,41.7427,-74.7282,13.1358,,,,
02_S2,04/05/2023,16:59:30.800,1.0232,-0.0144,0.0347,0.0992,1.7166,-2.5406,41.7427,-74.7282,13.1358,,,,
02_S2,04/05/2023,16:59:30.900,1.0237,-0.0134,0.0344,0.1068,1.7319,-2.5101,43.0563,-74.5823,13.2818,,,,
02_S2,04/05/2023,16:59:31.000,1.0237,-0.0134,0.0347,0.1068,1.7166,-2.5177,42.3265,-74.4363,13.7196,Inactive,0,21.01,
02_S2,04/05/2023,16:59:31.100,1.0237,-0.0129,0.0334,0.0916,1.7242,-2.5101,42.7644,-74.2904,13.8656,,,,
02_S2,04/05/2023,16:59:31.200,1.0234,-0.0146,0.0347,0.0992,1.6937,-2.5177,41.7427,-74.4363,13.4277,,,,
02_S2,04/05/2023,16:59:31.300,1.0234,-0.0144,0.0347,0.0916,1.7014,-2.5177,40.8670,-74.1444,12.8439,,,,
02_S2,04/05/2023,16:59:31.400,1.0242,-0.0151,0.0347,0.0916,1.7014,-2.4948,40.8670,-74.1444,12.8439,,,,
02_S2,04/05/2023,16:59:31.500,1.0234,-0.0146,0.0342,0.0992,1.7090,-2.5101,40.7211,-74.5823,14.1575,,,,
02_S2,04/05/2023,16:59:31.600,1.0237,-0.0137,0.0344,0.1068,1.6861,-2.4872,41.8887,-74.8742,12.9899,,,,
02_S2,04/05/2023,16:59:31.700,1.0237,-0.0134,0.0354,0.0839,1.6937,-2.5024,42.4725,-75.4580,13.5737,,,,
02_S2,04/05/2023,16:59:31.800,1.0237,-0.0137,0.0354,0.0916,1.6937,-2.4948,41.5968,-74.2904,13.5737,,,,
02_S2,04/05/2023,16:59:31.900,1.0239,-0.0142,0.0344,0.0992,1.7014,-2.5253,41.5968,-74.2904,13.5737,,,,
02_S2,04/05/2023,16:59:32.000,1.0234,-0.0146,0.0349,0.0916,1.7090,-2.5177,42.1806,-75.1661,13.5737,Inactive,0,21.04,
02_S2,04/05/2023,16:59:32.100,1.0239,-0.0144,0.0352,0.0763,1.7014,-2.5101,42.4725,-74.8742,13.8656,,,,
02_S2,04/05/2023,16:59:32.200,1.0242,-0.0142,0.0352,0.0916,1.7014,-2.4948,42.6185,-74.7282,13.1358,,,,
02_S2,04/05/2023,16:59:32.300,1.0239,-0.0134,0.0356,0.1068,1.7014,-2.5177,43.2023,-75.0202,12.5520,,,,
02_S2,04/05/2023,16:59:32.400,1.0242,-0.0134,0.0344,0.0916,1.7242,-2.5101,43.2023,-75.0202,12.5520,,,,
02_S2,04/05/2023,16:59:32.500,1.0234,-0.0134,0.0349,0.1144,1.7090,-2.5253,42.4725,-75.4580,13.2818,,,,
02_S2,04/05/2023,16:59:32.600,1.0229,-0.0134,0.0349,0.1068,1.7014,-2.4872,42.1806,-75.1661,12.1141,,,,
02_S2,04/05/2023,16:59:32.700,1.0244,-0.0139,0.0354,0.0916,1.7395,-2.4948,41.7427,-74.1444,13.4277,,,,
02_S2,04/05/2023,16:59:32.800,1.0234,-0.0125,0.0364,0.1068,1.7242,-2.5101,40.8670,-74.4363,13.1358,,,,
02_S2,04/05/2023,16:59:32.900,1.0239,-0.0139,0.0344,0.1068,1.7166,-2.5024,40.8670,-74.4363,13.1358,,,,
02_S2,04/05/2023,16:59:33.000,1.0242,-0.0146,0.0354,0.1144,1.7090,-2.4796,41.4508,-74.1444,14.0115,Inactive,0,21.01,
02_S2,04/05/2023,16:59:33.100,1.0239,-0.0146,0.0344,0.1068,1.7014,-2.4948,41.8887,-74.2904,13.2818,,,,
02_S2,04/05/2023,16:59:33.200,1.0237,-0.0146,0.0349,0.1297,1.7395,-2.5101,42.7644,-74.5823,13.2818,,,,
02_S2,04/05/2023,16:59:33.300,1.0239,-0.0142,0.0347,0.1068,1.7395,-2.4872,42.6185,-74.7282,13.4277,,,,
02_S2,04/05/2023,16:59:33.400,1.0237,-0.0139,0.0339,0.1068,1.7166,-2.5177,42.3265,-75.6040,12.8439,,,,
02_S2,04/05/2023,16:59:33.500,1.0237,-0.0139,0.0347,0.0916,1.7090,-2.5177,42.3265,-75.6040,12.8439,,,,
02_S2,04/05/2023,16:59:33.600,1.0239,-0.0139,0.0337,0.0916,1.7090,-2.4948,42.0346,-74.1444,12.8439,,,,
02_S2,04/05/2023,16:59:33.700,1.0239,-0.0137,0.0342,0.0992,1.7090,-2.5253,42.0346,-75.6040,13.4277,,,,
02_S2,04/05/2023,16:59:33.800,1.0239,-0.0144,0.0344,0.0992,1.7014,-2.5024,41.5968,-73.7066,13.2818,,,,
02_S2,04/05/2023,16:59:33.900,1.0234,-0.0134,0.0359,0.0992,1.7166,-2.5024,42.3265,-74.4363,13.1358,,,,
02_S2,04/05/2023,16:59:34.000,1.0242,-0.0134,0.0344,0.0916,1.7014,-2.5177,42.3265,-74.4363,13.1358,Inactive,0,21.03,
02_S2,04/05/2023,16:59:34.100,1.0234,-0.0134,0.0342,0.0839,1.7395,-2.5330,41.1589,-74.4363,12.5520,,,,
02_S2,04/05/2023,16:59:34.200,1.0239,-0.0134,0.0344,0.0992,1.7090,-2.4872,41.7427,-74.1444,14.3035,,,,
02_S2,04/05/2023,16:59:34.300,1.0244,-0.0142,0.0356,0.0916,1.7242,-2.5330,43.3482,-74.8742,14.7413,,,,
02_S2,04/05/2023,16:59:34.400,1.0244,-0.0137,0.0366,0.1068,1.7319,-2.5253,42.3265,-74.4363,12.8439,,,,
02_S2,04/05/2023,16:59:34.500,1.0244,-0.0137,0.0337,0.0916,1.7242,-2.5253,42.3265,-74.4363,12.8439,,,,
02_S2,04/05/2023,16:59:34.600,1.0229,-0.0139,0.0339,0.1221,1.7319,-2.5177,43.0563,-73.7066,14.4494,,,,
02_S2,04/05/2023,16:59:34.700,1.0232,-0.0134,0.0349,0.1068,1.7166,-2.5253,42.7644,-75.1661,13.5737,,,,
02_S2,04/05/2023,16:59:34.800,1.0234,-0.0142,0.0354,0.0916,1.7242,-2.5330,41.4508,-74.1444,13.4277,,,,
02_S2,04/05/2023,16:59:34.900,1.0234,-0.0144,0.0349,0.1068,1.7090,-2.5177,43.4942,-75.3121,13.4277,,,,
02_S2,04/05/2023,16:59:35.000,1.0234,-0.0142,0.0352,0.1068,1.7166,-2.5177,43.4942,-75.3121,13.4277,Inactive,0,21.06,
02_S2,04/05/2023,16:59:35.100,1.0247,-0.0139,0.0342,0.0839,1.7395,-2.5177,42.3265,-74.4363,13.4277,,,,
02_S2,04/05/2023,16:59:35.200,1.0239,-0.0142,0.0344,0.0992,1.7014,-2.5101,41.3049,-74.8742,13.8656,,,,
02_S2,04/05/2023,16:59:35.300,1.0239,-0.0137,0.0354,0.0992,1.7014,-2.5253,41.5968,-74.2904,13.5737,,,,
02_S2,04/05/2023,16:59:35.400,1.0242,-0.0142,0.0354,0.0916,1.7090,-2.5253,42.1806,-74.5823,13.2818,,,,
02_S2,04/05/2023,16:59:35.500,1.0242,-0.0134,0.0344,0.0992,1.7014,-2.5253,42.3265,-74.4363,13.4277,,,,
02_S2,04/05/2023,16:59:35.600,1.0234,-0.0144,0.0344,0.1068,1.7242,-2.5101,42.3265,-74.4363,13.4277,,,,
02_S2,04/05/2023,16:59:35.700,1.0229,-0.0129,0.0349,0.0992,1.7242,-2.5101,43.3482,-75.1661,13.2818,,,,
02_S2,04/05/2023,16:59:35.800,1.0229,-0.0137,0.0354,0.0839,1.7090,-2.4796,41.1589,-73.8525,14.0115,,,,
02_S2,04/05/2023,16:59:35.900,1.0234,-0.0132,0.0356,0.0763,1.7166,-2.5101,40.5751,-74.4363,12.5520,,,,
02_S2,04/05/2023,16:59:36.000,1.0237,-0.0142,0.0339,0.0916,1.7014,-2.5101,42.0346,-74.1444,14.5954,Inactive,0,21.05,
02_S2,04/05/2023,16:59:36.100,1.0232,-0.0142,0.0347,0.1144,1.7319,-2.4796,42.0346,-74.1444,14.5954,,,,
02_S2,04/05/2023,16:59:36.200,1.0234,-0.0137,0.0352,0.1144,1.7090,-2.4948,42.6185,-74.1444,12.5520,,,,
02_S2,04/05/2023,16:59:36.300,1.0242,-0.0139,0.0359,0.1221,1.7090,-2.4948,42.3265,-73.8525,12.8439,,,,
02_S2,04/05/2023,16:59:36.400,1.0232,-0.0144,0.0359,0.0916,1.7242,-2.5024,41.4508,-75.3121,13.1358,,,,
02_S2,04/05/2023,16:59:36.500,1.0232,-0.0134,0.0356,0.0916,1.7090,-2.5253,42.6185,-74.4363,14.3035,,,,
02_S2,04/05/2023,16:59:36.600,1.0237,-0.0139,0.0359,0.0610,1.7319,-2.5330,42.6185,-74.4363,14.3035,,,,
02_S2,04/05/2023,16:59:36.700,1.0234,-0.0137,0.0356,0.0916,1.7395,-2.5101,43.2023,-75.0202,13.1358,,,,
02_S2,04/05/2023,16:59:36.800,1.0237,-0.0139,0.0356,0.0839,1.7090,-2.4948,41.7427,-74.7282,14.3035,,,,
02_S2,04/05/2023,16:59:36.900,1.0227,-0.0134,0.0354,0.0992,1.7014,-2.5101,42.9104,-74.7282,12.5520,,,,
02_S2,04/05/2023,16:59:37.000,1.0242,-0.0137,0.0359,0.1068,1.6937,-2.4948,41.4508,-74.1444,14.0115,Inactive,0,20.98,
02_S2,04/05/2023,16:59:37.100,1.0237,-0.0144,0.0352,0.0839,1.7242,-2.5253,41.4508,-74.1444,14.0115,,,,
02_S2,04/05/2023,16:59:37.200,1.0237,-0.0146,0.0332,0.0916,1.7242,-2.5101,41.7427,-74.4363,13.4277,,,,
02_S2,04/05/2023,16:59:37.300,1.0242,-0.0146,0.0349,0.0916,1.7166,-2.5101,41.0130,-75.1661,12.9899,,,,
02_S2,04/05/2023,16:59:37.400,1.0239,-0.0139,0.0354,0.0763,1.7090,-2.5101,42.0346,-74.4363,13.7196,,,,
02_S2,04/05/2023,16:59:37.500,1.0234,-0.0142,0.0356,0.0763,1.6937,-2.5024,42.7644,-74.2904,14.1575,,,,
02_S2,04/05/2023,16:59:37.600,1.0242,-0.0132,0.0349,0.1068,1.7014,-2.4948,40.8670,-74.1444,13.4277,,,,
02_S2,04/05/2023,16:59:37.700,1.0244,-0.0134,0.0334,0.0916,1.7242,-2.5024,40.8670,-74.1444,13.4277,,,,
02_S2,04/05/2023,16:59:37.800,1.0234,-0.0142,0.0354,0.1068,1.7090,-2.5024,41.7427,-75.0202,14.3035,,,,
02_S2,04/05/2023,16:59:37.900,1.0239,-0.0139,0.0354,0.0610,1.6861,-2.5101,42.7644,-74.5823,13.2818,,,,
02_S2,04/05/2023,16:59:38.000,1.0239,-0.0139,0.0359,0.0839,1.7014,-2.5024,42.1806,-74.2904,13.8656,Inactive,0,21.05,
02_S2,04/05/2023,16:59:38.100,1.0244,-0.0144,0.0339,0.0916,1.7242,-2.5253,41.1589,-74.7282,14.3035,,,,
02_S2,04/05/2023,16:59:38.200,1.0239,-0.0142,0.0347,0.0763,1.7090,-2.5253,41.1589,-74.7282,14.3035,,,,
02_S2,04/05/2023,16:59:38.300,1.0239,-0.0142,0.0354,0.0992,1.7166,-2.5101,42.4725,-76.0418,13.8656,,,,
02_S2,04/05/2023,16:59:38.400,1.0239,-0.0154,0.0349,0.1450,1.7319,-2.5101,42.1806,-74.8742,12.9899,,,,
02_S2,04/05/2023,16:59:38.500,1.0232,-0.0144,0.0347,0.0916,1.7166,-2.5177,41.4508,-73.2687,13.4277,,,,
02_S2,04/05/2023,16:59:38.600,1.0234,-0.0154,0.0361,0.0916,1.7166,-2.5253,41.7427,-74.4363,12.2601,,,,
02_S2,04/05/2023,16:59:38.700,1.0234,-0.0144,0.0354,0.0992,1.7166,-2.5101,41.7427,-74.4363,12.2601,,,,
02_S2,04/05/2023,16:59:38.800,1.0234,-0.0134,0.0344,0.0992,1.7242,-2.5101,41.8887,-74.2904,13.5737,,,,
02_S2,04/05/2023,16:59:38.900,1.0239,-0.0137,0.0339,0.1068,1.6937,-2.5024,41.3049,-74.8742,14.1575,,,,
02_S2,04/05/2023,16:59:39.000,1.0232,-0.0149,0.0354,0.0992,1.7014,-2.5024,42.3265,-74.4363,13.4277,Inactive,0,21.09,
02_S2,04/05/2023,16:59:39.100,1.0239,-0.0142,0.0347,0.1144,1.7014,-2.5024,42.7644,-74.2904,12.9899,,,,
02_S2,04/05/2023,16:59:39.200,1.0234,-0.0144,0.0349,0.0992,1.7166,-2.5253,42.7644,-74.2904,12.9899,,,,
02_S2,04/05/2023,16:59:39.300,1.0237,-0.0142,0.0332,0.1144,1.7090,-2.5482,41.4508,-74.7282,14.3035,,,,
02_S2,04/05/2023,16:59:39.400,1.0242,-0.0149,0.0327,0.1068,1.7242,-2.5101,42.6185,-75.6040,13.7196,,,,
02_S2,04/05/2023,16:59:39.500,1.0239,-0.0146,0.0356,0.1297,1.7166,-2.5101,42.1806,-73.9985,12.9899,,,,
02_S2,04/05/2023,16:59:39.600,1.0239,-0.0149,0.0349,0.1068,1.7166,-2.5253,41.5968,-74.2904,12.4061,,,,
02_S2,04/05/2023,16:59:39.700,1.0234,-0.0139,0.0347,0.0992,1.7395,-2.5330,40.7211,-74.2904,15.0332,,,,
02_S2,04/05/2023,16:59:39.800,1.0234,-0.0132,0.0342,0.1144,1.7166,-2.5253,40.7211,-74.2904,15.0332,,,,
02_S2,04/05/2023,16:59:39.900,1.0239,-0.0139,0.0334,0.0992,1.7395,-2.5101,42.7644,-73.7066,13.5737,,,,
02_S2,04/05/2023,16:59:40.000,1.0237,-0.0132,0.0344,0.0839,1.7471,-2.5253,42.9104,-75.3121,12.8439,Inactive,0,21.09,
02_S2,04/05/2023,16:59:40.100,1.0239,-0.0137,0.0359,0.0916,1.7166,-2.5253,42.0346,-74.7282,13.1358,,,,
02_S2,04/05/2023,16:59:40.200,1.0239,-0.0134,0.0359,0.0992,1.7166,-2.5177,41.4508,-73.5606,14.3035,,,,
02_S2,04/05/2023,16:59:40.300,1.0232,-0.0134,0.0342,0.1068,1.7014,-2.5024,41.4508,-73.5606,14.3035,,,,
02_S2,04/05/2023,16:59:40.400,1.0232,-0.0125,0.0354,0.1221,1.6937,-2.5177,42.6185,-73.8525,13.4277,,,,
02_S2,04/05/2023,16:59:40.500,1.0237,-0.0117,0.0334,0.1144,1.7242,-2.5253,42.3265,-74.4363,13.1358,,,,
02_S2,04/05/2023,16:59:40.600,1.0239,-0.0144,0.0339,0.1221,1.7242,-2.5406,41.0130,-75.4580,12.9899,,,,
02_S2,04/05/2023,16:59:40.700,1.0239,-0.0134,0.0344,0.0992,1.7242,-2.5635,41.5968,-74.8742,12.1141,,,,
02_S2,04/05/2023,16:59:40.800,1.0234,-0.0134,0.0354,0.0916,1.7319,-2.5177,41.5968,-74.8742,12.1141,,,,
02_S2,04/05/2023,16:59:40.900,1.0247,-0.0132,0.0352,0.0916,1.7395,-2.5177,41.1589,-74.1444,14.0115,,,,
02_S2,04/05/2023,16:59:41.000,1.0234,-0.0142,0.0349,0.1068,1.7242,-2.5253,41.0130,-74.8742,12.4061,Inactive,0,21.08,
02_S2,04/05/2023,16:59:41.100,1.0244,-0.0142,0.0349,0.0763,1.6937,-2.5101,40.7211,-73.7066,14.7413,,,,
02_S2,04/05/2023,16:59:41.200,1.0237,-0.0146,0.0361,0.0839,1.6785,-2.5177,42.6185,-74.4363,12.2601,,,,
02_S2,04/05/2023,16:59:41.300,1.0232,-0.0149,0.0352,0.0916,1.7090,-2.5101,40.8670,-73.5606,14.0115,,,,
02_S2,04/05/2023,16:59:41.400,1.0229,-0.0139,0.0356,0.1144,1.7166,-2.4948,40.8670,-73.5606,14.0115,,,,
02_S2,04/05/2023,16:59:41.500,1.0237,-0.0144,0.0354,0.1144,1.6937,-2.5024,40.7211,-74.8742,13.8656,,,,
02_S2,04/05/2023,16:59:41.600,1.0232,-0.0144,0.0339,0.1144,1.7090,-2.5253,42.4725,-75.1661,13.8656,,,,
02_S2,04/05/2023,16:59:41.700,1.0232,-0.0146,0.0347,0.0992,1.7166,-2.5177,42.6185,-74.7282,13.1358,,,,
02_S2,04/05/2023,16:59:41.800,1.0237,-0.0127,0.0352,0.1221,1.6861,-2.4948,42.9104,-75.0202,13.1358,,,,
02_S2,04/05/2023,16:59:41.900,1.0242,-0.0137,0.0344,0.0839,1.7090,-2.5253,42.9104,-75.0202,13.1358,,,,
02_S2,04/05/2023,16:59:42.000,1.0244,-0.0139,0.0356,0.0839,1.6937,-2.5024,42.3265,-75.0202,14.3035,Inactive,0,21.1,
02_S2,04/05/2023,16:59:42.100,1.0232,-0.0146,0.0342,0.0916,1.7242,-2.5253,41.3049,-74.5823,13.2818,,,,
02_S2,04/05/2023,16:59:42.200,1.0239,-0.0144,0.0342,0.0839,1.7319,-2.5177,41.1589,-74.1444,13.4277,,,,
02_S2,04/05/2023,16:59:42.300,1.0237,-0.0139,0.0339,0.0839,1.7014,-2.5101,42.3265,-74.7282,13.4277,,,,
02_S2,04/05/2023,16:59:42.400,1.0237,-0.0144,0.0339,0.0916,1.7242,-2.4948,42.3265,-74.7282,13.4277,,,,
02_S2,04/05/2023,16:59:42.500,1.0239,-0.0151,0.0347,0.0839,1.7014,-2.5024,43.3482,-74.2904,13.2818,,,,
02_S2,04/05/2023,16:59:42.600,1.0239,-0.0142,0.0356,0.0916,1.7395,-2.4796,41.3049,-74.5823,12.6980,,,,
02_S2,04/05/2023,16:59:42.700,1.0234,-0.0137,0.0356,0.0992,1.7242,-2.5253,42.4725,-75.4580,13.2818,,,,
02_S2,04/05/2023,16:59:42.800,1.0242,-0.0125,0.0352,0.0992,1.7090,-2.5101,42.3265,-75.3121,14.3035,,,,
02_S2,04/05/2023,16:59:42.900,1.0232,-0.0127,0.0349,0.0916,1.6861,-2.5177,42.3265,-75.3121,14.3035,,,,
02_S2,04/05/2023,16:59:43.000,1.0242,-0.0137,0.0342,0.0992,1.7395,-2.4948,41.7427,-75.0202,12.8439,Inactive,0,21.14,
02_S2,04/05/2023,16:59:43.100,1.0232,-0.0146,0.0339,0.0992,1.7090,-2.5177,42.0346,-73.8525,14.8873,,,,
02_S2,04/05/2023,16:59:43.200,1.0242,-0.0149,0.0366,0.0916,1.7166,-2.5101,41.8887,-74.5823,13.8656,,,,
02_S2,04/05/2023,16:59:43.300,1.0232,-0.0149,0.0361,0.0839,1.7166,-2.5330,41.5968,-74.5823,13.2818,,,,
02_S2,04/05/2023,16:59:43.400,1.0237,-0.0139,0.0354,0.0687,1.7090,-2.5101,41.5968,-75.1661,13.8656,,,,
02_S2,04/05/2023,16:59:43.500,1.0242,-0.0142,0.0349,0.0763,1.7319,-2.5024,41.5968,-75.1661,13.8656,,,,
02_S2,04/05/2023,16:59:43.600,1.0237,-0.0139,0.0347,0.0916,1.7395,-2.5101,41.7427,-75.3121,14.8873,,,,
02_S2,04/05/2023,16:59:43.700,1.0232,-0.0129,0.0354,0.1068,1.7319,-2.5406,42.4725,-75.4580,13.8656,,,,
02_S2,04/05/2023,16:59:43.800,1.0234,-0.0122,0.0359,0.0992,1.7166,-2.5330,42.1806,-74.2904,14.1575,,,,
02_S2,04/05/2023,16:59:43.900,1.0242,-0.0137,0.0361,0.0458,1.7090,-2.4948,42.4725,-74.5823,13.8656,,,,
02_S2,04/05/2023,16:59:44.000,1.0239,-0.0137,0.0344,0.0839,1.7319,-2.4948,42.4725,-74.5823,13.8656,Inactive,0,21.13,
02_S2,04/05/2023,16:59:44.100,1.0244,-0.0137,0.0337,0.0916,1.7319,-2.5177,41.8887,-74.5823,13.5737,,,,
02_S2,04/05/2023,16:59:44.200,1.0247,-0.0144,0.0342,0.0916,1.7471,-2.4948,42.1806,-74.8742,12.4061,,,,
02_S2,04/05/2023,16:59:44.300,1.0237,-0.0134,0.0354,0.1068,1.7242,-2.5101,41.4508,-74.1444,13.7196,,,,
02_S2,04/05/2023,16:59:44.400,1.0239,-0.0146,0.0344,0.0763,1.6937,-2.5406,42.3265,-75.6040,14.8873,,,,
02_S2,04/05/2023,16:59:44.500,1.0239,-0.0134,0.0339,0.0839,1.7242,-2.5330,42.3265,-75.6040,14.8873,,,,
02_S2,04/05/2023,16:59:44.600,1.0239,-0.0134,0.0344,0.0839,1.7471,-2.5330,42.6185,-75.3121,12.8439,,,,
02_S2,04/05/2023,16:59:44.700,1.0234,-0.0142,0.0344,0.1068,1.7548,-2.5101,41.4508,-73.2687,14.3035,,,,
02_S2,04/05/2023,16:59:44.800,1.0244,-0.0139,0.0334,0.0916,1.7242,-2.5177,42.1806,-74.2904,13.2818,,,,
02_S2,04/05/2023,16:59:44.900,1.0237,-0.0144,0.0352,0.1068,1.7319,-2.5253,42.1806,-74.5823,12.9899,,,,
02_S2,04/05/2023,16:59:45.000,1.0239,-0.0151,0.0349,0.1068,1.7319,-2.5406,42.1806,-74.5823,12.9899,Inactive,0,21.09,
02_S2,04/05/2023,16:59:45.100,1.0234,-0.0139,0.0334,0.0992,1.7166,-2.5253,41.8887,-74.5823,13.2818,,,,
02_S2,04/05/2023,16:59:45.200,1.0234,-0.0144,0.0334,0.0992,1.7166,-2.4948,43.0563,-76.0418,13.2818,,,,
02_S2,04/05/2023,16:59:45.300,1.0242,-0.0142,0.0354,0.0916,1.7242,-2.5101,42.7644,-75.7499,14.4494,,,,
02_S2,04/05/2023,16:59:45.400,1.0234,-0.0144,0.0349,0.0839,1.7395,-2.5482,41.1589,-75.0202,13.1358,,,,
02_S2,04/05/2023,16:59:45.500,1.0234,-0.0137,0.0325,0.0687,1.7242,-2.5101,42.6185,-75.6040,14.3035,,,,
02_S2,04/05/2023,16:59:45.600,1.0239,-0.0129,0.0332,0.0763,1.7242,-2.5330,42.6185,-75.6040,14.3035,,,,
02_S2,04/05/2023,16:59:45.700,1.0234,-0.0142,0.0344,0.0763,1.7014,-2.5177,42.3265,-73.8525,13.7196,,,,
02_S2,04/05/2023,16:59:45.800,1.0234,-0.0142,0.0352,0.0687,1.7471,-2.5253,41.7427,-75.6040,14.3035,,,,
02_S2,04/05/2023,16:59:45.900,1.0237,-0.0149,0.0354,0.0763,1.7395,-2.5406,41.4508,-73.8525,13.4277,,,,
02_S2,04/05/2023,16:59:46.000,1.0237,-0.0142,0.0364,0.0992,1.7090,-2.5177,41.4508,-74.1444,13.7196,Inactive,0,21.14,
02_S2,04/05/2023,16:59:46.100,1.0232,-0.0146,0.0352,0.0992,1.7319,-2.5177,41.4508,-74.1444,13.7196,,,,
02_S2,04/05/2023,16:59:46.200,1.0239,-0.0142,0.0354,0.1221,1.7090,-2.5177,41.3049,-74.2904,14.7413,,,,
02_S2,04/05/2023,16:59:46.300,1.0229,-0.0149,0.0356,0.1068,1.7166,-2.5406,43.0563,-75.4580,13.2818,,,,
02_S2,04/05/2023,16:59:46.400,1.0239,-0.0146,0.0344,0.0992,1.7090,-2.5406,40.8670,-75.6040,13.1358,,,,
02_S2,04/05/2023,16:59:46.500,1.0237,-0.0139,0.0356,0.0839,1.7166,-2.5177,41.8887,-74.5823,13.8656,,,,
02_S2,04/05/2023,16:59:46.600,1.0234,-0.0142,0.0354,0.0763,1.7166,-2.5101,41.8887,-74.5823,13.8656,,,,
02_S2,04/05/2023,16:59:46.700,1.0234,-0.0146,0.0349,0.0992,1.7395,-2.5101,42.9104,-74.7282,13.4277,,,,
02_S2,04/05/2023,16:59:46.800,1.0234,-0.0137,0.0359,0.0992,1.7548,-2.5253,42.3265,-75.0202,14.3035,,,,
02_S2,04/05/2023,16:59:46.900,1.0232,-0.0144,0.0347,0.0916,1.7471,-2.5330,42.0346,-74.4363,14.3035,,,,
02_S2,04/05/2023,16:59:47.000,1.0234,-0.0142,0.0361,0.0687,1.7395,-2.5330,42.1806,-74.2904,13.5737,Inactive,0,21.08,
02_S2,04/05/2023,16:59:47.100,1.0239,-0.0134,0.0342,0.0763,1.7242,-2.5406,42.1806,-74.2904,13.5737,,,,
02_S2,04/05/2023,16:59:47.200,1.0239,-0.0142,0.0359,0.0687,1.7700,-2.5101,40.7211,-74.5823,12.4061,,,,
02_S2,04/05/2023,16:59:47.300,1.0242,-0.0137,0.0334,0.0916,1.7395,-2.5101,43.0563,-74.5823,13.5737,,,,
02_S2,04/05/2023,16:59:47.400,1.0237,-0.0132,0.0366,0.0992,1.7395,-2.5177,42.7644,-74.5823,13.8656,,,,
02_S2,04/05/2023,16:59:47.500,1.0237,-0.0134,0.0356,0.0839,1.7090,-2.5253,41.8887,-73.4147,13.8656,,,,
02_S2,04/05/2023,16:59:47.600,1.0239,-0.0137,0.0349,0.0687,1.7166,-2.5101,42.0346,-74.4363,13.7196,,,,
02_S2,04/05/2023,16:59:47.700,1.0237,-0.0137,0.0347,0.0916,1.7242,-2.5177,42.0346,-74.4363,13.7196,,,,
02_S2,04/05/2023,16:59:47.800,1.0242,-0.0149,0.0354,0.0916,1.7319,-2.5330,42.1806,-75.4580,15.3251,,,,
02_S2,04/05/2023,16:59:47.900,1.0239,-0.0129,0.0334,0.1068,1.7319,-2.5406,42.1806,-73.7066,12.9899,,,,
02_S2,04/05/2023,16:59:48.000,1.0239,-0.0134,0.0337,0.1068,1.7090,-2.5406,41.3049,-75.1661,13.8656,Inactive,0,21.12,
02_S2,04/05/2023,16:59:48.100,1.0232,-0.0132,0.0349,0.0992,1.6861,-2.5330,42.1806,-74.2904,14.1575,,,,
02_S2,04/05/2023,16:59:48.200,1.0237,-0.0132,0.0342,0.0687,1.7319,-2.5406,42.1806,-74.2904,14.1575,,,,
02_S2,04/05/2023,16:59:48.300,1.0237,-0.0137,0.0349,0.0763,1.7319,-2.5330,41.7427,-74.1444,13.7196,,,,
02_S2,04/05/2023,16:59:48.400,1.0237,-0.0137,0.0352,0.0916,1.7242,-2.5101,42.6185,-76.4797,13.4277,,,,
02_S2,04/05/2023,16:59:48.500,1.0234,-0.0137,0.0352,0.0992,1.7090,-2.5253,42.9104,-74.1444,13.7196,,,,
02_S2,04/05/2023,16:59:48.600,1.0239,-0.0137,0.0352,0.0992,1.7319,-2.5177,42.1806,-76.3337,14.7413,,,,
02_S2,04/05/2023,16:59:48.700,1.0242,-0.0137,0.0330,0.0992,1.7395,-2.5330,42.1806,-76.3337,14.7413,,,,
02_S2,04/05/2023,16:59:48.800,1.0237,-0.0142,0.0352,0.0916,1.7319,-2.5253,41.7427,-75.3121,13.4277,,,,
02_S2,04/05/2023,16:59:48.900,1.0232,-0.0142,0.0347,0.1144,1.7548,-2.4948,41.7427,-75.0202,14.3035,,,,
02_S2,04/05/2023,16:59:49.000,1.0237,-0.0146,0.0369,0.0916,1.7624,-2.4948,42.4725,-74.8742,12.6980,Inactive,0,21.13,
02_S2,04/05/2023,16:59:49.100,1.0242,-0.0142,0.0334,0.0687,1.7395,-2.5330,41.1589,-73.5606,13.7196,,,,
02_S2,04/05/2023,16:59:49.200,1.0242,-0.0142,0.0344,0.0839,1.7319,-2.5177,42.4725,-74.2904,13.8656,,,,
02_S2,04/05/2023,16:59:49.300,1.0239,-0.0137,0.0344,0.0839,1.7319,-2.5101,42.4725,-74.2904,13.8656,,,,
02_S2,04/05/2023,16:59:49.400,1.0237,-0.0142,0.0344,0.0687,1.7090,-2.5253,41.8887,-74.8742,12.4061,,,,
02_S2,04/05/2023,16:59:49.500,1.0239,-0.0144,0.0354,0.0916,1.7319,-2.5024,42.0346,-74.4363,13.7196,,,,
02_S2,04/05/2023,16:59:49.600,1.0237,-0.0142,0.0356,0.0763,1.7166,-2.5177,41.7427,-75.0202,13.7196,,,,
02_S2,04/05/2023,16:59:49.700,1.0237,-0.0139,0.0337,0.0763,1.7395,-2.5101,42.6185,-74.1444,13.4277,,,,
02_S2,04/05/2023,16:59:49.800,1.0242,-0.0142,0.0344,0.0839,1.7548,-2.5253,42.6185,-74.1444,13.4277,,,,
02_S2,04/05/2023,16:59:49.900,1.0239,-0.0137,0.0339,0.0839,1.7395,-2.5253,41.3049,-74.5823,13.5737,,,,
02_S2,04/05/2023,16:59:50.000,1.0242,-0.0137,0.0344,0.0839,1.7090,-2.5177,41.4508,-73.8525,12.8439,Inactive,0,21.15,
02_S2,04/05/2023,16:59:50.100,1.0232,-0.0139,0.0339,0.1068,1.7319,-2.5024,43.0563,-75.1661,13.8656,,,,
02_S2,04/05/2023,16:59:50.200,1.0237,-0.0137,0.0344,0.0992,1.7166,-2.5101,41.7427,-74.1444,13.7196,,,,
02_S2,04/05/2023,16:59:50.300,1.0234,-0.0142,0.0352,0.0839,1.7166,-2.5177,41.7427,-74.1444,13.7196,,,,
02_S2,04/05/2023,16:59:50.400,1.0237,-0.0142,0.0354,0.0839,1.7548,-2.5101,42.4725,-74.2904,12.9899,,,,
02_S2,04/05/2023,16:59:50.500,1.0234,-0.0142,0.0359,0.0839,1.7471,-2.5177,42.0346,-74.4363,14.0115,,,,
02_S2,04/05/2023,16:59:50.600,1.0244,-0.0142,0.0361,0.0992,1.7471,-2.5101,42.0346,-74.7282,14.0115,,,,
02_S2,04/05/2023,16:59:50.700,1.0244,-0.0142,0.0354,0.0763,1.7090,-2.5177,42.9104,-74.7282,14.8873,,,,
02_S2,04/05/2023,16:59:50.800,1.0242,-0.0142,0.0361,0.0839,1.7319,-2.5101,42.9104,-74.7282,14.8873,,,,
02_S2,04/05/2023,16:59:50.900,1.0232,-0.0144,0.0352,0.0916,1.7166,-2.4872,42.3265,-75.6040,14.0115,,,,
02_S2,04/05/2023,16:59:51.000,1.0234,-0.0142,0.0359,0.0916,1.7395,-2.5101,43.2023,-75.0202,14.0115,Inactive,0,21.16,
02_S2,04/05/2023,16:59:51.100,1.0237,-0.0127,0.0361,0.0763,1.7471,-2.5253,41.7427,-74.7282,13.7196,,,,
02_S2,04/05/2023,16:59:51.200,1.0237,-0.0129,0.0356,0.0687,1.7395,-2.5330,41.5968,-74.8742,13.5737,,,,
02_S2,04/05/2023,16:59:51.300,1.0234,-0.0137,0.0347,0.0916,1.7166,-2.5024,43.2023,-74.1444,12.8439,,,,
02_S2,04/05/2023,16:59:51.400,1.0232,-0.0134,0.0344,0.0916,1.7548,-2.5253,43.2023,-74.1444,12.8439,,,,
02_S2,04/05/2023,16:59:51.500,1.0234,-0.0134,0.0349,0.0687,1.7242,-2.5330,42.1806,-74.8742,14.1575,,,,
02_S2,04/05/2023,16:59:51.600,1.0237,-0.0137,0.0347,0.0763,1.7319,-2.5330,42.9104,-74.4363,14.0115,,,,
02_S2,04/05/2023,16:59:51.700,1.0239,-0.0139,0.0361,0.0839,1.7395,-2.5330,42.0346,-73.8525,13.7196,,,,
02_S2,04/05/2023,16:59:51.800,1.0242,-0.0137,0.0352,0.0916,1.7471,-2.5101,42.7644,-74.8742,13.5737,,,,
02_S2,04/05/2023,16:59:51.900,1.0234,-0.0139,0.0349,0.0839,1.7624,-2.5253,42.7644,-74.8742,13.5737,,,,
02_S2,04/05/2023,16:59:52.000,1.0237,-0.0132,0.0354,0.0763,1.7700,-2.5101,41.3049,-74.5823,12.9899,Inactive,0,21.17,
02_S2,04/05/2023,16:59:52.100,1.0237,-0.0144,0.0344,0.0839,1.7319,-2.4948,41.7427,-75.0202,13.1358,,,,
02_S2,04/05/2023,16:59:52.200,1.0237,-0.0144,0.0352,0.0763,1.7395,-2.5177,41.8887,-73.9985,14.1575,,,,
02_S2,04/05/2023,16:59:52.300,1.0239,-0.0139,0.0366,0.0763,1.7395,-2.5024,41.8887,-73.9985,13.5737,,,,
02_S2,04/05/2023,16:59:52.400,1.0239,-0.0132,0.0347,0.0916,1.7395,-2.5253,41.8887,-73.9985,13.5737,,,,
02_S2,04/05/2023,16:59:52.500,1.0234,-0.0146,0.0339,0.0916,1.7242,-2.5253,41.8887,-73.1228,14.7413,,,,
02_S2,04/05/2023,16:59:52.600,1.0237,-0.0139,0.0349,0.0839,1.7090,-2.5253,41.5968,-73.9985,13.2818,,,,
02_S2,04/05/2023,16:59:52.700,1.0234,-0.0134,0.0352,0.0763,1.7319,-2.5406,42.4725,-73.9985,13.2818,,,,
02_S2,04/05/2023,16:59:52.800,1.0237,-0.0139,0.0347,0.0687,1.7242,-2.5101,41.3049,-74.2904,13.5737,,,,
02_S2,04/05/2023,16:59:52.900,1.0237,-0.0149,0.0342,0.0916,1.7166,-2.5101,41.3049,-74.2904,13.5737,,,,
02_S2,04/05/2023,16:59:53.000,1.0232,-0.0139,0.0327,0.0763,1.7242,-2.5177,41.5968,-74.8742,13.5737,Inactive,0,21.15,
02_S2,04/05/2023,16:59:53.100,1.0237,-0.0144,0.0352,0.0916,1.7319,-2.5253,41.5968,-74.5823,12.9899,,,,
02_S2,04/05/2023,16:59:53.200,1.0232,-0.0132,0.0337,0.0839,1.7319,-2.5101,42.4725,-74.8742,12.1141,,,,
02_S2,04/05/2023,16:59:53.300,1.0242,-0.0142,0.0352,0.0610,1.7090,-2.5330,42.1806,-74.5823,13.8656,,,,
02_S2,04/05/2023,16:59:53.400,1.0234,-0.0137,0.0344,0.0687,1.7242,-2.5253,41.5968,-73.9985,14.1575,,,,
02_S2,04/05/2023,16:59:53.500,1.0229,-0.0144,0.0354,0.0687,1.7166,-2.5024,41.5968,-73.9985,14.1575,,,,
02_S2,04/05/2023,16:59:53.600,1.0229,-0.0144,0.0344,0.0610,1.6861,-2.4948,42.6185,-74.4363,14.0115,,,,
02_S2,04/05/2023,16:59:53.700,1.0239,-0.0151,0.0344,0.0763,1.6861,-2.5177,40.8670,-75.8959,14.3035,,,,
02_S2,04/05/2023,16:59:53.800,1.0239,-0.0137,0.0347,0.0916,1.7090,-2.5024,42.3265,-74.7282,12.8439,,,,
02_S2,04/05/2023,16:59:53.900,1.0244,-0.0137,0.0342,0.0763,1.7319,-2.5330,41.8887,-74.2904,13.8656,,,,
02_S2,04/05/2023,16:59:54.000,1.0232,-0.0134,0.0344,0.0763,1.6937,-2.5330,41.8887,-74.2904,13.8656,Inactive,0,21.18,
02_S2,04/05/2023,16:59:54.100,1.0234,-0.0139,0.0349,0.0687,1.7166,-2.5330,43.4942,-74.4363,13.4277,,,,
02_S2,04/05/2023,16:59:54.200,1.0234,-0.0129,0.0352,0.0763,1.7090,-2.5330,42.1806,-74.2904,13.8656,,,,
02_S2,04/05/2023,16:59:54.300,1.0239,-0.0129,0.0359,0.0916,1.7166,-2.5177,42.6185,-74.4363,14.0115,,,,
02_S2,04/05/2023,16:59:54.400,1.0239,-0.0142,0.0354,0.0839,1.7319,-2.5253,41.7427,-74.4363,13.4277,,,,
02_S2,04/05/2023,16:59:54.500,1.0229,-0.0137,0.0342,0.0763,1.7395,-2.5024,41.7427,-74.4363,13.4277,,,,
02_S2,04/05/2023,16:59:54.600,1.0232,-0.0134,0.0339,0.0534,1.7090,-2.5177,42.4725,-73.9985,14.4494,,,,
02_S2,04/05/2023,16:59:54.700,1.0229,-0.0142,0.0347,0.0992,1.7166,-2.5253,42.1806,-75.1661,14.7413,,,,
02_S2,04/05/2023,16:59:54.800,1.0234,-0.0139,0.0359,0.0534,1.7319,-2.5253,42.1806,-75.4580,13.5737,,,,
02_S2,04/05/2023,16:59:54.900,1.0229,-0.0137,0.0361,0.0610,1.7548,-2.5177,43.7861,-75.6040,14.0115,,,,
02_S2,04/05/2023,16:59:55.000,1.0229,-0.0137,0.0344,0.0763,1.7242,-2.5406,43.7861,-75.6040,14.0115,Inactive,0,21.17,
02_S2,04/05/2023,16:59:55.100,1.0229,-0.0137,0.0339,0.0534,1.7166,-2.5177,41.8887,-74.8742,13.2818,,,,
02_S2,04/05/2023,16:59:55.200,1.0232,-0.0134,0.0347,0.0763,1.7319,-2.5406,42.3265,-74.4363,13.4277,,,,
02_S2,04/05/2023,16:59:55.300,1.0227,-0.0144,0.0347,0.0763,1.7319,-2.5177,42.3265,-75.3121,14.3035,,,,
02_S2,04/05/2023,16:59:55.400,1.0229,-0.0132,0.0354,0.0992,1.7471,-2.5406,42.3265,-74.4363,13.7196,,,,
02_S2,04/05/2023,16:59:55.500,1.0227,-0.0139,0.0369,0.0839,1.7319,-2.5406,41.7427,-73.8525,13.7196,,,,
02_S2,04/05/2023,16:59:55.600,1.0234,-0.0132,0.0344,0.0916,1.7242,-2.5330,41.7427,-73.8525,13.7196,,,,
02_S2,04/05/2023,16:59:55.700,1.0237,-0.0129,0.0354,0.0839,1.7395,-2.5101,42.9104,-75.6040,13.4277,,,,
02_S2,04/05/2023,16:59:55.800,1.0232,-0.0129,0.0354,0.0763,1.7319,-2.5101,43.2023,-74.7282,13.4277,,,,
02_S2,04/05/2023,16:59:55.900,1.0239,-0.0132,0.0369,0.0534,1.7319,-2.5253,42.4725,-74.5823,14.4494,,,,
02_S2,04/05/2023,16:59:56.000,1.0239,-0.0134,0.0361,0.0763,1.7395,-2.5406,41.4508,-73.5606,12.5520,Inactive,0,21.18,
02_S2,04/05/2023,16:59:56.100,1.0237,-0.0134,0.0352,0.0839,1.7166,-2.5253,41.4508,-73.5606,12.5520,,,,
02_S2,04/05/2023,16:59:56.200,1.0234,-0.0129,0.0332,0.0916,1.7166,-2.5482,41.8887,-73.4147,13.5737,,,,
02_S2,04/05/2023,16:59:56.300,1.0237,-0.0139,0.0344,0.0763,1.7548,-2.5406,42.3265,-74.7282,13.1358,,,,
02_S2,04/05/2023,16:59:56.400,1.0234,-0.0129,0.0356,0.0610,1.7242,-2.5177,41.5968,-73.4147,13.8656,,,,
02_S2,04/05/2023,16:59:56.500,1.0239,-0.0134,0.0359,0.0839,1.6937,-2.5101,42.3265,-74.7282,14.0115,,,,
02_S2,04/05/2023,16:59:56.600,1.0232,-0.0134,0.0349,0.0763,1.7090,-2.5406,42.3265,-74.7282,14.0115,,,,
02_S2,04/05/2023,16:59:56.700,1.0239,-0.0142,0.0354,0.0610,1.7319,-2.5406,42.0346,-74.1444,13.7196,,,,
02_S2,04/05/2023,16:59:56.800,1.0237,-0.0142,0.0344,0.0839,1.7319,-2.5253,41.1589,-74.7282,13.7196,,,,
02_S2,04/05/2023,16:59:56.900,1.0237,-0.0134,0.0364,0.0916,1.7624,-2.5330,42.4725,-73.9985,13.2818,,,,
02_S2,04/05/2023,16:59:57.000,1.0227,-0.0142,0.0361,0.0763,1.7166,-2.5253,40.1372,-74.8742,12.4061,Inactive,0,21.15,
02_S2,04/05/2023,16:59:57.100,1.0232,-0.0137,0.0342,0.0992,1.7242,-2.5253,42.0346,-73.8525,14.3035,,,,
02_S2,04/05/2023,16:59:57.200,1.0234,-0.0134,0.0359,0.0992,1.7548,-2.5101,42.0346,-73.8525,14.3035,,,,
02_S2,04/05/2023,16:59:57.300,1.0234,-0.0132,0.0356,0.0839,1.7319,-2.5253,42.6185,-74.4363,15.1792,,,,
02_S2,04/05/2023,16:59:57.400,1.0234,-0.0134,0.0352,0.0839,1.7166,-2.5330,42.0346,-75.0202,13.1358,,,,
02_S2,04/05/2023,16:59:57.500,1.0229,-0.0142,0.0359,0.0763,1.7395,-2.5330,42.4725,-74.2904,13.8656,,,,
02_S2,04/05/2023,16:59:57.600,1.0237,-0.0144,0.0352,0.0687,1.7242,-2.5406,41.5968,-73.9985,12.9899,,,,
02_S2,04/05/2023,16:59:57.700,1.0244,-0.0154,0.0342,0.0839,1.7395,-2.5253,41.5968,-73.9985,12.9899,,,,
02_S2,04/05/2023,16:59:57.800,1.0234,-0.0137,0.0354,0.0763,1.7090,-2.5101,42.1806,-75.4580,13.2818,,,,
02_S2,04/05/2023,16:59:57.900,1.0227,-0.0139,0.0347,0.0916,1.7471,-2.5101,41.8887,-73.9985,14.4494,,,,
02_S2,04/05/2023,16:59:58.000,1.0229,-0.0139,0.0364,0.0687,1.7319,-2.5406,42.0346,-73.8525,12.8439,Inactive,0,21.21,
02_S2,04/05/2023,16:59:58.100,1.0239,-0.0129,0.0344,0.0687,1.7014,-2.5406,41.0130,-74.8742,12.9899,,,,
02_S2,04/05/2023,16:59:58.200,1.0232,-0.0137,0.0342,0.0610,1.6708,-2.5330,41.0130,-74.8742,12.9899,,,,
02_S2,04/05/2023,16:59:58.300,1.0232,-0.0142,0.0342,0.0610,1.7242,-2.5406,42.1806,-73.4147,13.2818,,,,
02_S2,04/05/2023,16:59:58.400,1.0229,-0.0146,0.0369,0.0763,1.7166,-2.5253,41.8887,-74.5823,13.5737,,,,
02_S2,04/05/2023,16:59:58.500,1.0234,-0.0139,0.0371,0.0992,1.7090,-2.4948,42.1806,-73.9985,13.2818,,,,
02_S2,04/05/2023,16:59:58.600,1.0239,-0.0139,0.0354,0.1068,1.7242,-2.5253,41.8887,-74.8742,14.1575,,,,
02_S2,04/05/2023,16:59:58.700,1.0239,-0.0132,0.0339,0.0916,1.7319,-2.5253,41.8887,-74.8742,14.1575,,,,
02_S2,04/05/2023,16:59:58.800,1.0237,-0.0139,0.0334,0.0763,1.7319,-2.5406,41.7427,-74.4363,14.0115,,,,
02_S2,04/05/2023,16:59:58.900,1.0234,-0.0139,0.0352,0.0839,1.7319,-2.5330,43.2023,-75.0202,13.7196,,,,
02_S2,04/05/2023,16:59:59.000,1.0239,-0.0139,0.0352,0.0839,1.7242,-2.5253,41.1589,-74.7282,13.1358,Inactive,0,21.2,
02_S2,04/05/2023,16:59:59.100,1.0237,-0.0146,0.0352,0.0916,1.7014,-2.5024,42.3265,-75.6040,14.3035,,,,
02_S2,04/05/2023,16:59:59.200,1.0232,-0.0144,0.0354,0.0763,1.7471,-2.5330,42.4725,-74.8742,12.9899,,,,
02_S2,04/05/2023,16:59:59.300,1.0237,-0.0142,0.0334,0.0763,1.7548,-2.5101,42.4725,-74.8742,12.9899,,,,
02_S2,04/05/2023,16:59:59.400,1.0237,-0.0139,0.0342,0.0687,1.7548,-2.5177,42.6185,-74.7282,13.7196,,,,
02_S2,04/05/2023,16:59:59.500,1.0229,-0.0139,0.0344,0.0839,1.7471,-2.5330,42.3265,-75.0202,13.7196,,,,
02_S2,04/05/2023,16:59:59.600,1.0234,-0.0139,0.0354,0.0763,1.7319,-2.5330,41.7427,-73.8525,13.1358,,,,
02_S2,04/05/2023,16:59:59.700,1.0239,-0.0137,0.0356,0.0839,1.7242,-2.5253,41.3049,-74.8742,13.2818,,,,
02_S2,04/05/2023,16:59:59.800,1.0229,-0.0144,0.0359,0.0763,1.7395,-2.5406,41.3049,-74.8742,13.2818,,,,
02_S2,04/05/2023,16:59:59.900,1.0232,-0.0139,0.0359,0.0839,1.7242,-2.5330,42.7644,-75.1661,13.2818,,,,
02_S2,04/05/2023,17:00:00.000,1.0234,-0.0139,0.0349,0.0916,1.7166,-2.5177,42.0346,-74.1444,13.4277,Inactive,0,21.2,
02_S2,04/05/2023,17:00:00.100,1.0234,-0.0142,0.0354,0.1068,1.7319,-2.5406,42.1806,-75.7499,13.5737,,,,
02_S2,04/05/2023,17:00:00.200,1.0232,-0.0134,0.0352,0.0916,1.7548,-2.5330,41.7427,-74.7282,13.7196,,,,
02_S2,04/05/2023,17:00:00.300,1.0232,-0.0139,0.0334,0.0992,1.7624,-2.5482,41.7427,-74.7282,13.7196,,,,
02_S2,04/05/2023,17:00:00.400,1.0232,-0.0132,0.0347,0.0839,1.7624,-2.5406,42.9104,-74.4363,14.0115,,,,
02_S2,04/05/2023,17:00:00.500,1.0234,-0.0142,0.0354,0.0687,1.7090,-2.5406,42.4725,-74.5823,12.9899,,,,
02_S2,04/05/2023,17:00:00.600,1.0242,-0.0137,0.0356,0.0763,1.7090,-2.5330,42.1806,-74.5823,13.5737,,,,
02_S2,04/05/2023,17:00:00.700,1.0229,-0.0139,0.0361,0.0687,1.7319,-2.5253,42.1806,-74.5823,14.4494,,,,
02_S2,04/05/2023,17:00:00.800,1.0234,-0.0142,0.0339,0.0610,1.7548,-2.5330,42.1806,-74.5823,14.4494,,,,
02_S2,04/05/2023,17:00:00.900,1.0234,-0.0142,0.0347,0.0916,1.7395,-2.5330,42.1806,-74.2904,14.4494,,,,
02_S2,04/05/2023,17:00:01.000,1.0239,-0.0142,0.0354,0.0992,1.7471,-2.5330,41.8887,-73.9985,13.2818,Inactive,0,21.2,
02_S2,04/05/2023,17:00:01.100,1.0247,-0.0142,0.0352,0.0992,1.7548,-2.5330,42.0346,-75.3121,13.4277,,,,
02_S2,04/05/2023,17:00:01.200,1.0237,-0.0146,0.0356,0.0839,1.7166,-2.5177,42.6185,-74.7282,14.3035,,,,
02_S2,04/05/2023,17:00:01.300,1.0227,-0.0149,0.0344,0.0763,1.7319,-2.5101,42.1806,-74.2904,13.8656,,,,
02_S2,04/05/2023,17:00:01.400,1.0234,-0.0144,0.0356,0.0610,1.7319,-2.5101,42.1806,-74.2904,13.8656,,,,
02_S2,04/05/2023,17:00:01.500,1.0227,-0.0134,0.0354,0.0839,1.7395,-2.5330,41.4508,-75.6040,13.4277,,,,
02_S2,04/05/2023,17:00:01.600,1.0234,-0.0142,0.0349,0.0458,1.7471,-2.5253,42.3265,-75.0202,13.4277,,,,
02_S2,04/05/2023,17:00:01.700,1.0239,-0.0139,0.0361,0.0610,1.7471,-2.5024,42.6185,-75.3121,13.4277,,,,
02_S2,04/05/2023,17:00:01.800,1.0234,-0.0144,0.0349,0.0687,1.7319,-2.5101,41.7427,-74.4363,13.7196,,,,
02_S2,04/05/2023,17:00:01.900,1.0237,-0.0146,0.0349,0.0763,1.7395,-2.5253,41.7427,-74.4363,13.7196,,,,
02_S2,04/05/2023,17:00:02.000,1.0227,-0.0137,0.0349,0.1068,1.7776,-2.5253,40.7211,-75.4580,12.9899,Inactive,0,21.2,
02_S2,04/05/2023,17:00:02.100,1.0234,-0.0129,0.0337,0.0916,1.7471,-2.5024,41.3049,-75.1661,12.6980,,,,
02_S2,04/05/2023,17:00:02.200,1.0232,-0.0129,0.0347,0.0916,1.7166,-2.5406,41.7427,-75.0202,13.7196,,,,
02_S2,04/05/2023,17:00:02.300,1.0242,-0.0132,0.0352,0.0763,1.7166,-2.5253,41.1589,-73.8525,13.7196,,,,
02_S2,04/05/2023,17:00:02.400,1.0234,-0.0137,0.0339,0.0687,1.7166,-2.5177,41.1589,-73.8525,13.7196,,,,
02_S2,04/05/2023,17:00:02.500,1.0237,-0.0142,0.0332,0.0687,1.7090,-2.5330,41.5968,-75.1661,12.9899,,,,
02_S2,04/05/2023,17:00:02.600,1.0237,-0.0134,0.0347,0.0763,1.7090,-2.5406,41.1589,-75.6040,14.3035,,,,
02_S2,04/05/2023,17:00:02.700,1.0237,-0.0137,0.0352,0.0763,1.7090,-2.5482,41.5968,-74.2904,13.2818,,,,
02_S2,04/05/2023,17:00:02.800,1.0234,-0.0142,0.0356,0.0839,1.7548,-2.5558,42.1806,-73.4147,13.5737,,,,
02_S2,04/05/2023,17:00:02.900,1.0227,-0.0146,0.0354,0.0763,1.7471,-2.5406,42.1806,-73.4147,13.5737,,,,
02_S2,04/05/2023,17:00:03.000,1.0232,-0.0146,0.0349,0.0839,1.7471,-2.5406,42.1806,-74.8742,13.5737,Inactive,0,21.24,
02_S2,04/05/2023,17:00:03.100,1.0242,-0.0144,0.0347,0.0839,1.7395,-2.5177,41.7427,-74.1444,14.3035,,,,
02_S2,04/05/2023,17:00:03.200,1.0239,-0.0144,0.0359,0.0839,1.7319,-2.5330,42.9104,-74.1444,14.0115,,,,
02_S2,04/05/2023,17:00:03.300,1.0237,-0.0134,0.0342,0.0763,1.7395,-2.5482,41.4508,-75.3121,14.8873,,,,
02_S2,04/05/2023,17:00:03.400,1.0242,-0.0139,0.0339,0.0763,1.7471,-2.5177,42.4725,-74.8742,14.7413,,,,
02_S2,04/05/2023,17:00:03.500,1.0229,-0.0142,0.0347,0.0687,1.7395,-2.5482,42.4725,-74.8742,14.7413,,,,
02_S2,04/05/2023,17:00:03.600,1.0239,-0.0142,0.0349,0.0687,1.7395,-2.5482,41.3049,-74.8742,14.7413,,,,
02_S2,04/05/2023,17:00:03.700,1.0232,-0.0144,0.0352,0.0839,1.7395,-2.5253,43.2023,-75.0202,14.3035,,,,
02_S2,04/05/2023,17:00:03.800,1.0232,-0.0132,0.0361,0.0916,1.7242,-2.5177,41.3049,-73.9985,12.9899,,,,
02_S2,04/05/2023,17:00:03.900,1.0237,-0.0129,0.0342,0.0839,1.7548,-2.5177,42.0346,-75.0202,12.8439,,,,
02_S2,04/05/2023,17:00:04.000,1.0239,-0.0139,0.0349,0.0839,1.7548,-2.5482,42.0346,-75.0202,12.8439,Inactive,0,21.23,
02_S2,04/05/2023,17:00:04.100,1.0232,-0.0132,0.0344,0.0610,1.7471,-2.5253,42.1806,-74.8742,13.8656,,,,
02_S2,04/05/2023,17:00:04.200,1.0234,-0.0137,0.0337,0.0381,1.7471,-2.5330,42.9104,-74.7282,13.7196,,,,
02_S2,04/05/2023,17:00:04.300,1.0232,-0.0139,0.0352,0.0687,1.7319,-2.5177,42.4725,-74.8742,12.9899,,,,
02_S2,04/05/2023,17:00:04.400,1.0234,-0.0125,0.0352,0.0839,1.7700,-2.5406,41.7427,-75.0202,13.1358,,,,
02_S2,04/05/2023,17:00:04.500,1.0232,-0.0142,0.0354,0.0687,1.7242,-2.5406,41.7427,-75.0202,13.1358,,,,
02_S2,04/05/2023,17:00:04.600,1.0234,-0.0144,0.0339,0.0839,1.7471,-2.5253,42.1806,-74.2904,14.4494,,,,
02_S2,04/05/2023,17:00:04.700,1.0239,-0.0142,0.0339,0.0839,1.7471,-2.5177,42.0346,-75.0202,14.0115,,,,
02_S2,04/05/2023,17:00:04.800,1.0239,-0.0142,0.0349,0.0839,1.7395,-2.5177,41.8887,-74.8742,13.2818,,,,
02_S2,04/05/2023,17:00:04.900,1.0239,-0.0144,0.0359,0.0839,1.7319,-2.4948,40.7211,-74.5823,13.2818,,,,
02_S2,04/05/2023,17:00:05.000,1.0234,-0.0137,0.0344,0.0916,1.7395,-2.5406,41.5968,-74.8742,13.2818,Inactive,0,21.23,
02_S2,04/05/2023,17:00:05.100,1.0232,-0.0134,0.0342,0.0763,1.7319,-2.5406,41.5968,-74.8742,13.2818,,,,
02_S2,04/05/2023,17:00:05.200,1.0234,-0.0142,0.0352,0.0534,1.7319,-2.5482,42.1806,-74.2904,15.0332,,,,
02_S2,04/05/2023,17:00:05.300,1.0242,-0.0137,0.0364,0.0839,1.6861,-2.5330,41.8887,-74.5823,13.8656,,,,
02_S2,04/05/2023,17:00:05.400,1.0239,-0.0132,0.0339,0.0763,1.7090,-2.5330,41.5968,-73.7066,13.2818,,,,
02_S2,04/05/2023,17:00:05.500,1.0239,-0.0146,0.0359,0.0687,1.7395,-2.5177,42.6185,-75.0202,12.5520,,,,
02_S2,04/05/2023,17:00:05.600,1.0244,-0.0132,0.0334,0.0610,1.7471,-2.5253,42.6185,-75.0202,12.5520,,,,
02_S2,04/05/2023,17:00:05.700,1.0232,-0.0137,0.0352,0.0763,1.7395,-2.5330,42.7644,-74.8742,13.8656,,,,
02_S2,04/05/2023,17:00:05.800,1.0232,-0.0132,0.0337,0.0610,1.7624,-2.5253,41.3049,-73.9985,13.2818,,,,
02_S2,04/05/2023,17:00:05.900,1.0234,-0.0132,0.0352,0.0763,1.7395,-2.5253,41.8887,-75.4580,12.9899,,,,
02_S2,04/05/2023,17:00:06.000,1.0232,-0.0137,0.0354,0.0992,1.7242,-2.5330,41.5968,-74.5823,13.8656,Inactive,0,21.25,
02_S2,04/05/2023,17:00:06.100,1.0237,-0.0144,0.0359,0.0916,1.7319,-2.5177,41.5968,-74.5823,13.8656,,,,
02_S2,04/05/2023,17:00:06.200,1.0242,-0.0139,0.0359,0.0687,1.7471,-2.5330,41.4508,-74.7282,13.7196,,,,
02_S2,04/05/2023,17:00:06.300,1.0239,-0.0142,0.0347,0.0763,1.7242,-2.5253,41.4508,-75.0202,13.4277,,,,
02_S2,04/05/2023,17:00:06.400,1.0232,-0.0139,0.0347,0.0916,1.7395,-2.5406,41.8887,-74.5823,13.2818,,,,
02_S2,04/05/2023,17:00:06.500,1.0234,-0.0137,0.0352,0.0610,1.7319,-2.5330,42.4725,-75.1661,12.6980,,,,
02_S2,04/05/2023,17:00:06.600,1.0239,-0.0144,0.0349,0.0687,1.7471,-2.5635,42.4725,-75.1661,12.6980,,,,
02_S2,04/05/2023,17:00:06.700,1.0237,-0.0149,0.0334,0.0534,1.7319,-2.5330,41.1589,-74.7282,13.7196,,,,
02_S2,04/05/2023,17:00:06.800,1.0232,-0.0142,0.0349,0.0687,1.7471,-2.5330,41.5968,-73.7066,13.5737,,,,
02_S2,04/05/2023,17:00:06.900,1.0234,-0.0139,0.0366,0.0763,1.7548,-2.5330,42.1806,-74.2904,13.5737,,,,
02_S2,04/05/2023,17:00:07.000,1.0232,-0.0142,0.0347,0.0534,1.7395,-2.5177,42.0346,-75.0202,13.1358,Inactive,0,21.18,
02_S2,04/05/2023,17:00:07.100,1.0239,-0.0134,0.0339,0.0763,1.7319,-2.5558,40.8670,-73.8525,13.1358,,,,
02_S2,04/05/2023,17:00:07.200,1.0234,-0.0137,0.0347,0.0839,1.7624,-2.5482,40.8670,-73.8525,13.1358,,,,
02_S2,04/05/2023,17:00:07.300,1.0232,-0.0151,0.0342,0.0839,1.7166,-2.5482,42.9104,-75.6040,13.7196,,,,
02_S2,04/05/2023,17:00:07.400,1.0232,-0.0144,0.0354,0.0763,1.7242,-2.5711,42.3265,-75.3121,13.7196,,,,
02_S2,04/05/2023,17:00:07.500,1.0237,-0.0146,0.0342,0.0610,1.7776,-2.5406,41.3049,-74.5823,12.6980,,,,
02_S2,04/05/2023,17:00:07.600,1.0232,-0.0137,0.0354,0.0610,1.7471,-2.5330,41.4508,-75.8959,14.5954,,,,
02_S2,04/05/2023,17:00:07.700,1.0229,-0.0134,0.0349,0.0610,1.7548,-2.5406,41.4508,-75.8959,14.5954,,,,
02_S2,04/05/2023,17:00:07.800,1.0234,-0.0134,0.0342,0.0610,1.7624,-2.5330,41.4508,-75.3121,12.5520,,,,
02_S2,04/05/2023,17:00:07.900,1.0239,-0.0139,0.0332,0.0763,1.7471,-2.5406,41.8887,-74.5823,13.5737,,,,
02_S2,04/05/2023,17:00:08.000,1.0237,-0.0137,0.0342,0.0916,1.7395,-2.5253,41.8887,-75.4580,12.4061,Inactive,0,21.23,
02_S2,04/05/2023,17:00:08.100,1.0239,-0.0139,0.0356,0.0839,1.7166,-2.5406,43.3482,-74.2904,14.7413,,,,
02_S2,04/05/2023,17:00:08.200,1.0229,-0.0139,0.0349,0.0839,1.7624,-2.5406,43.3482,-74.2904,14.7413,,,,
02_S2,04/05/2023,17:00:08.300,1.0234,-0.0137,0.0347,0.0687,1.7395,-2.5482,42.6185,-74.7282,12.5520,,,,
02_S2,04/05/2023,17:00:08.400,1.0232,-0.0134,0.0352,0.0763,1.7548,-2.5482,41.1589,-74.4363,13.4277,,,,
02_S2,04/05/2023,17:00:08.500,1.0234,-0.0139,0.0356,0.0839,1.7395,-2.5177,43.3482,-73.9985,14.1575,,,,
02_S2,04/05/2023,17:00:08.600,1.0234,-0.0132,0.0366,0.0916,1.7471,-2.5406,41.3049,-74.8742,13.2818,,,,
02_S2,04/05/2023,17:00:08.700,1.0232,-0.0144,0.0347,0.0610,1.7548,-2.5406,41.3049,-74.8742,13.2818,,,,
02_S2,04/05/2023,17:00:08.800,1.0237,-0.0142,0.0342,0.0763,1.7624,-2.5330,42.0346,-75.6040,13.7196,,,,
02_S2,04/05/2023,17:00:08.900,1.0237,-0.0139,0.0339,0.0839,1.7624,-2.5253,40.5751,-73.8525,12.8439,,,,
02_S2,04/05/2023,17:00:09.000,1.0232,-0.0139,0.0361,0.0534,1.7548,-2.5406,41.4508,-75.0202,12.2601,Inactive,0,21.23,
02_S2,04/05/2023,17:00:09.100,1.0237,-0.0139,0.0356,0.0839,1.7242,-2.5406,40.2832,-75.0202,14.3035,,,,
02_S2,04/05/2023,17:00:09.200,1.0239,-0.0137,0.0369,0.0763,1.7548,-2.5101,42.1806,-75.4580,15.0332,,,,
02_S2,04/05/2023,17:00:09.300,1.0237,-0.0137,0.0337,0.1068,1.7166,-2.5406,42.1806,-75.4580,15.0332,,,,
02_S2,04/05/2023,17:00:09.400,1.0227,-0.0139,0.0337,0.0916,1.7166,-2.5253,42.6185,-73.2687,14.5954,,,,
02_S2,04/05/2023,17:00:09.500,1.0242,-0.0134,0.0361,0.0839,1.7166,-2.5253,41.5968,-74.2904,13.2818,,,,
02_S2,04/05/2023,17:00:09.600,1.0234,-0.0144,0.0364,0.0763,1.7548,-2.5482,41.4508,-73.5606,14.3035,,,,
02_S2,04/05/2023,17:00:09.700,1.0237,-0.0129,0.0354,0.0687,1.7242,-2.5330,42.1806,-74.5823,13.5737,,,,
02_S2,04/05/2023,17:00:09.800,1.0237,-0.0139,0.0359,0.0687,1.7624,-2.5330,42.1806,-74.5823,13.5737,,,,
02_S2,04/05/2023,17:00:09.900,1.0232,-0.0134,0.0349,0.0763,1.7319,-2.5253,41.4508,-75.0202,14.3035,,,,
02_S2,04/05/2023,17:00:10.000,1.0234,-0.0127,0.0344,0.0610,1.7166,-2.5253,42.1806,-74.2904,13.5737,Inactive,0,21.24,
02_S2,04/05/2023,17:00:10.100,1.0229,-0.0137,0.0354,0.0992,1.7395,-2.5177,42.0346,-74.1444,13.4277,,,,
02_S2,04/05/2023,17:00:10.200,1.0237,-0.0144,0.0349,0.0763,1.7548,-2.5558,42.4725,-74.8742,13.2818,,,,
02_S2,04/05/2023,17:00:10.300,1.0242,-0.0142,0.0334,0.0687,1.7395,-2.5406,42.4725,-74.8742,13.2818,,,,
02_S2,04/05/2023,17:00:10.400,1.0234,-0.0142,0.0352,0.0916,1.7319,-2.5482,42.3265,-73.8525,13.7196,,,,
02_S2,04/05/2023,17:00:10.500,1.0244,-0.0137,0.0352,0.0992,1.7471,-2.5330,42.1806,-74.5823,14.7413,,,,
02_S2,04/05/2023,17:00:10.600,1.0237,-0.0142,0.0349,0.0839,1.7548,-2.5330,42.9104,-75.6040,13.4277,,,,
02_S2,04/05/2023,17:00:10.700,1.0239,-0.0134,0.0337,0.0839,1.7166,-2.5330,41.7427,-75.0202,14.3035,,,,
02_S2,04/05/2023,17:00:10.800,1.0234,-0.0139,0.0332,0.0763,1.7319,-2.5330,41.5968,-73.9985,13.5737,,,,
02_S2,04/05/2023,17:00:10.900,1.0234,-0.0134,0.0352,0.0687,1.7090,-2.5330,41.5968,-73.9985,13.5737,,,,
02_S2,04/05/2023,17:00:11.000,1.0234,-0.0134,0.0339,0.0839,1.7014,-2.5406,42.3265,-74.7282,14.3035,Inactive,0,21.24,
02_S2,04/05/2023,17:00:11.100,1.0239,-0.0144,0.0359,0.0839,1.7548,-2.5177,41.7427,-75.3121,14.3035,,,,
02_S2,04/05/2023,17:00:11.200,1.0232,-0.0142,0.0354,0.0992,1.7319,-2.5177,42.9104,-75.0202,11.6763,,,,
02_S2,04/05/2023,17:00:11.300,1.0232,-0.0142,0.0352,0.0763,1.7548,-2.5482,44.0780,-74.7282,12.5520,,,,
02_S2,04/05/2023,17:00:11.400,1.0225,-0.0139,0.0344,0.0839,1.6861,-2.5253,44.0780,-74.7282,12.5520,,,,
02_S2,04/05/2023,17:00:11.500,1.0232,-0.0137,0.0337,0.0763,1.7090,-2.5177,45.8294,-77.9392,11.3844,,,,
02_S2,04/05/2023,17:00:11.600,1.0227,-0.0144,0.0332,0.0992,1.7090,-2.5330,45.2456,-81.7340,7.2977,,,,
02_S2,04/05/2023,17:00:11.700,1.0234,-0.0134,0.0349,0.0992,1.7166,-2.5177,31.3800,-89.1776,9.7789,,,,
02_S2,04/05/2023,17:00:11.800,1.0234,-0.0142,0.0378,0.0992,1.7624,-2.5253,21.7471,-87.4262,27.2933,,,,
02_S2,04/05/2023,17:00:11.900,1.0234,-0.0149,0.0342,0.0916,1.7242,-2.5177,21.7471,-87.4262,27.2933,,,,
02_S2,04/05/2023,17:00:12.000,1.0220,-0.0146,0.0339,0.0763,1.7471,-2.5406,21.3092,-83.1936,36.7803,Inactive,0,21.25,
02_S2,04/05/2023,17:00:12.100,1.0229,-0.0142,0.0352,0.0687,1.7242,-2.5330,23.7904,-77.7933,58.5274,,,,
02_S2,04/05/2023,17:00:12.200,1.0232,-0.0139,0.0339,0.0763,1.7090,-2.5330,18.9740,-68.0144,65.3872,,,,
02_S2,04/05/2023,17:00:12.300,1.0232,-0.0139,0.0352,0.0839,1.7242,-2.5330,13.7196,-69.4739,60.1329,,,,
02_S2,04/05/2023,17:00:12.400,1.0237,-0.0137,0.0354,0.0916,1.7090,-2.5177,13.7196,-69.4739,60.1329,,,,
02_S2,04/05/2023,17:00:12.500,1.0227,-0.0142,0.0344,0.0687,1.7242,-2.5406,11.2384,-69.3280,58.5274,,,,
02_S2,04/05/2023,17:00:12.600,1.0234,-0.0129,0.0349,0.0763,1.7319,-2.5330,5.6922,-69.0361,62.3222,,,,
02_S2,04/05/2023,17:00:12.700,1.0234,-0.0132,0.0354,0.0610,1.7471,-2.5330,0.2919,-66.2629,95.4537,,,,
02_S2,04/05/2023,17:00:12.800,1.0232,-0.0144,0.0354,0.0916,1.7471,-2.5253,-3.2110,-148.5808,225.6443,,,,
02_S2,04/05/2023,17:00:12.900,1.0234,-0.0137,0.0352,0.1068,1.7242,-2.5253,103.3351,-312.9245,935.8545,,,,
02_S2,04/05/2023,17:00:13.000,1.0232,-0.0144,0.0352,0.0763,1.7166,-2.5406,103.3351,-312.9245,935.8545,Inactive,0,21.27,
02_S2,04/05/2023,17:00:13.100,1.0239,-0.0134,0.0354,0.0763,1.7090,-2.5406,-1133.1838,-1212.8744,2518.2834,,,,
02_S2,04/05/2023,17:00:13.200,1.0232,-0.0137,0.0342,0.0763,1.7090,-2.5330,-410.1296,66.8467,4371.8941,,,,
02_S2,04/05/2023,17:00:13.300,1.0234,-0.0149,0.0347,0.0763,1.7319,-2.5253,0.0000,0.0000,4782.0238,,,,
02_S2,04/05/2023,17:00:13.400,1.0239,-0.0134,0.0349,0.0610,1.7242,-2.5330,0.0000,0.0000,4782.0238,,,,
02_S2,04/05/2023,17:00:13.500,1.0237,-0.0132,0.0339,0.0534,1.7166,-2.5253,0.0000,0.0000,4782.0238,,,,
02_S2,04/05/2023,17:00:13.600,1.0237,-0.0134,0.0342,0.0763,1.7166,-2.5406,0.0000,0.0000,4782.0238,,,,
02_S2,04/05/2023,17:00:13.700,1.0237,-0.0137,0.0347,0.0763,1.7166,-2.5330,0.0000,0.0000,4782.0238,,,,
02_S2,04/05/2023,17:00:13.800,1.0234,-0.0139,0.0356,0.0687,1.6937,-2.5558,0.0000,0.0000,4782.0238,,,,
02_S2,04/05/2023,17:00:13.900,1.0229,-0.0139,0.0356,0.0687,1.7014,-2.5330,0.0000,0.0000,4782.0238,,,,
02_S2,04/05/2023,17:00:14.000,1.0237,-0.0134,0.0349,0.0687,1.7090,-2.5177,0.0000,0.0000,4782.0238,Inactive,0,21.26,
02_S2,04/05/2023,17:00:14.100,1.0234,-0.0142,0.0334,0.0763,1.7090,-2.5177,0.0000,0.0000,4782.0238,,,,
02_S2,04/05/2023,17:00:14.200,1.0229,-0.0139,0.0347,0.0610,1.7242,-2.5558,0.0000,0.0000,4782.0238,,,,
02_S2,04/05/2023,17:00:14.300,1.0242,-0.0142,0.0354,0.0687,1.7395,-2.5406,262.5705,368.8247,3659.4946,,,,
02_S2,04/05/2023,17:00:14.400,1.0239,-0.0149,0.0354,0.0763,1.7242,-2.5253,44.9537,-61.5924,158.5056,,,,
02_S2,04/05/2023,17:00:14.500,1.0229,-0.0137,0.0359,0.0687,1.7319,-2.5406,44.9537,-61.5924,158.5056,,,,
02_S2,04/05/2023,17:00:14.600,1.0237,-0.0137,0.0342,0.0839,1.7242,-2.5177,27.5852,-50.6459,52.6892,,,,
02_S2,04/05/2023,17:00:14.700,1.0232,-0.0134,0.0356,0.0839,1.7166,-2.5253,27.7312,-46.1213,39.1156,,,,
02_S2,04/05/2023,17:00:14.800,1.0239,-0.0134,0.0354,0.0992,1.6937,-2.5406,26.7095,-47.1430,36.6344,,,,
02_S2,04/05/2023,17:00:14.900,1.0237,-0.0137,0.0342,0.0916,1.7242,-2.5406,27.0014,-47.1430,35.7586,,,,
02_S2,04/05/2023,17:00:15.000,1.0234,-0.0146,0.0334,0.0763,1.7242,-2.5177,26.7095,-46.2673,36.0505,Inactive,0,21.27,
02_S2,04/05/2023,17:00:15.100,1.0232,-0.0137,0.0339,0.0763,1.7090,-2.5330,26.7095,-46.2673,36.0505,,,,
02_S2,04/05/2023,17:00:15.200,1.0234,-0.0139,0.0334,0.0610,1.6861,-2.5101,26.5636,-46.9971,37.0722,,,,
02_S2,04/05/2023,17:00:15.300,1.0234,-0.0144,0.0352,0.0763,1.7090,-2.5406,27.5852,-47.1430,35.7586,,,,
02_S2,04/05/2023,17:00:15.400,1.0234,-0.0134,0.0366,0.0763,1.7166,-2.5330,25.8338,-46.2673,36.3424,,,,
02_S2,04/05/2023,17:00:15.500,1.0239,-0.0146,0.0356,0.0687,1.7319,-2.5406,26.4176,-46.2673,36.3424,,,,
02_S2,04/05/2023,17:00:15.600,1.0239,-0.0134,0.0344,0.0839,1.7166,-2.5253,26.4176,-46.2673,36.3424,,,,
02_S2,04/05/2023,17:00:15.700,1.0237,-0.0127,0.0356,0.0763,1.7166,-2.5330,26.7095,-47.1430,37.5101,,,,
02_S2,04/05/2023,17:00:15.800,1.0234,-0.0132,0.0347,0.0916,1.7319,-2.5330,25.8338,-46.5592,35.4667,,,,
02_S2,04/05/2023,17:00:15.900,1.0247,-0.0134,0.0344,0.0687,1.7166,-2.5177,26.4176,-46.5592,36.3424,,,,
02_S2,04/05/2023,17:00:16.000,0.0000,0.0000,0.0000,0.0000,0.0000,0.0000,0.0000,0.0000,0.0000,Inactive,,21,Power off command received.
