TagID,Date,Time,accX,accY,accZ,gyroX,gyroY,gyroZ,compX,compY,compZ,Activity,Depth,Temp. (?C),Metadata
05_S2,16/05/2023,16:19:26.000,0.0061,0.7859,0.6699,-53.2227,-5.3711,18.3487,3.3569,-13.5737,124.7903,Active,0,-381.28,
05_S2,16/05/2023,16:19:26.100,0.0955,0.6174,0.7395,-91.8121,-12.2452,25.5508,2.4812,-16.7847,131.2123,,,,
05_S2,16/05/2023,16:19:26.200,0.0732,0.5601,0.8525,-81.0776,-3.3340,-2.3041,5.1084,-17.0766,139.3857,,,,
05_S2,16/05/2023,16:19:26.300,0.0715,0.4387,0.8987,-73.5703,28.5950,6.0196,7.7355,-16.7847,144.0562,,,,
05_S2,16/05/2023,16:19:26.400,0.0989,0.3796,0.9309,-71.2662,4.6921,4.3488,-4773.9963,4765.9689,-4636.7999,,,,
05_S2,16/05/2023,16:19:26.500,0.1265,0.3203,0.9631,-68.9621,-19.2108,2.6779,9.6329,-16.6387,147.7050,,,,
05_S2,16/05/2023,16:19:26.600,0.1028,0.2495,0.9377,-68.8095,-2.3651,-5.2567,9.6329,-16.6387,147.7050,,,,
05_S2,16/05/2023,16:19:26.700,0.0562,-0.0044,0.9260,-78.4760,-3.4714,-23.3078,14.0115,-17.2225,151.4998,,,,
05_S2,16/05/2023,16:19:26.800,0.0879,-0.1919,1.0410,-106.3843,-25.9705,9.2468,20.4335,-17.5144,156.7542,,,,
05_S2,16/05/2023,16:19:26.900,0.0837,-0.3235,0.9355,-79.4220,-12.2375,37.9028,25.9797,-18.6821,160.2571,,,,
05_S2,16/05/2023,16:19:27.000,0.0864,-0.4717,0.9656,-96.6797,18.3334,33.1268,31.8179,-18.0982,161.4247,Inactive,0,22.79,
05_S2,16/05/2023,16:19:27.100,0.1648,-0.5933,0.7104,-149.3301,-13.9084,-13.9236,31.8179,-18.0982,161.4247,,,,
05_S2,16/05/2023,16:19:27.200,0.1375,-0.7805,0.4211,-208.2443,15.0146,9.3689,44.3699,-20.7254,161.1328,,,,
05_S2,16/05/2023,16:19:27.300,0.0286,-0.9534,0.2905,-129.1733,16.3040,9.8648,59.2572,-17.8063,155.5865,,,,
05_S2,16/05/2023,16:19:27.400,0.0532,-0.9937,0.0950,-114.2731,-13.0692,-6.7139,63.9277,-17.5144,149.4565,,,,
05_S2,16/05/2023,16:19:27.500,0.0713,-1.0059,-0.0527,-75.5310,-17.6620,11.9400,68.3063,-17.8063,145.0779,,,,
05_S2,16/05/2023,16:19:27.600,0.0708,-0.9800,-0.1682,-77.6215,-0.3815,-1.4725,69.7658,-18.0982,140.9912,,,,
05_S2,16/05/2023,16:19:27.700,-0.0178,-0.9600,-0.5095,-131.8054,-18.8599,14.9765,69.7658,-18.0982,140.9912,,,,
05_S2,16/05/2023,16:19:27.800,-0.0093,-0.7832,-0.5000,-92.3996,-32.1808,12.4283,71.6632,-16.4928,130.3366,,,,
05_S2,16/05/2023,16:19:27.900,-0.0254,-0.7004,-0.7786,-108.4747,-5.4626,-8.1558,72.5389,-16.2008,122.7470,,,,
05_S2,16/05/2023,16:19:28.000,-0.0715,-0.6555,-0.7795,-32.7377,-17.2653,5.9738,72.1011,-16.3468,119.0981,Inactive,0,22.82,
05_S2,16/05/2023,16:19:28.100,-0.0898,-0.6118,-0.8015,-11.8103,-17.3569,3.5248,71.2254,-16.3468,117.9305,,,,
05_S2,16/05/2023,16:19:28.200,-0.0718,-0.5774,-0.8174,-37.4146,7.2403,4.9362,70.9334,-16.3468,114.1357,,,,
05_S2,16/05/2023,16:19:28.300,-0.0461,-0.4404,-0.9014,-78.1860,13.2370,-1.5030,70.9334,-16.3468,114.1357,,,,
05_S2,16/05/2023,16:19:28.400,-0.0269,-0.3066,-0.9387,-70.1447,2.2202,8.9798,68.8901,-15.7630,109.4652,,,,
05_S2,16/05/2023,16:19:28.500,-0.0671,-0.2332,-0.9790,-71.8079,9.8877,20.2255,64.6574,-16.2008,105.2325,,,,
05_S2,16/05/2023,16:19:28.600,-0.1128,-0.0952,-1.0007,-58.6014,-44.2505,7.6065,61.7384,-13.5737,100.5620,,,,
05_S2,16/05/2023,16:19:28.700,-0.1084,0.0215,-0.9988,-68.9774,16.3193,3.6240,57.7976,-13.4277,96.6213,,,,
05_S2,16/05/2023,16:19:28.800,-0.0781,0.2100,-1.0046,-101.1581,24.2462,11.9629,57.7976,-13.4277,96.6213,,,,
05_S2,16/05/2023,16:19:28.900,-0.0779,0.4026,-0.9026,-146.4233,-14.4424,16.0904,50.0621,-13.5737,92.9724,,,,
05_S2,16/05/2023,16:19:29.000,-0.0764,0.5889,-0.7632,-142.5934,-22.0413,8.0872,37.8020,-12.1141,89.7615,Inactive,0,22.85,
05_S2,16/05/2023,16:19:29.100,-0.0493,0.8157,-0.6165,-118.4769,1.1444,12.7335,30.9422,-11.6763,92.2427,,,,
05_S2,16/05/2023,16:19:29.200,-0.0085,0.9390,-0.3992,-148.3765,15.5411,25.5203,20.1416,-13.4277,95.4537,,,,
05_S2,16/05/2023,16:19:29.300,0.0107,1.0029,-0.1936,-130.6305,9.9106,19.2108,11.6763,-15.7630,99.5404,,,,
05_S2,16/05/2023,16:19:29.400,0.0137,0.9788,-0.0264,-77.2705,-12.2375,19.7830,11.6763,-15.7630,99.5404,,,,
05_S2,16/05/2023,16:19:29.500,0.0981,0.9431,0.0464,-71.4722,-21.8887,28.4042,7.4436,-16.4928,104.9406,,,,
05_S2,16/05/2023,16:19:29.600,0.2144,1.0220,0.2876,-91.9189,4.2038,26.4130,4.6705,-17.2225,111.2166,,,,
05_S2,16/05/2023,16:19:29.700,0.1311,0.9395,0.3567,-68.2755,16.1591,-9.4070,3.0650,-18.8280,117.7846,,,,
05_S2,16/05/2023,16:19:29.800,0.1062,0.8872,0.4438,-45.7993,-0.3128,-11.7569,2.3353,-17.5144,120.2658,,,,
05_S2,16/05/2023,16:19:29.900,0.1113,0.7878,0.4834,-75.7370,-27.6184,-9.3613,2.9191,-16.6387,126.6877,,,,
05_S2,16/05/2023,16:19:30.000,0.1267,0.7417,0.6904,-104.4312,-30.4260,1.9836,2.9191,-16.6387,126.6877,Inactive,0,22.85,
05_S2,16/05/2023,16:19:30.100,0.1814,0.6340,0.8550,-88.3713,-7.2403,14.6561,3.9407,-17.0766,134.4233,,,,
05_S2,16/05/2023,16:19:30.200,0.1716,0.4436,0.9111,-95.4971,27.0996,16.0828,5.1084,-17.9523,142.5967,,,,
05_S2,16/05/2023,16:19:30.300,0.1262,0.4019,0.9062,-49.3317,13.0463,-7.7209,8.0274,-18.2442,144.9319,,,,
05_S2,16/05/2023,16:19:30.400,0.1104,0.2449,0.8796,-65.5060,8.5602,-18.7607,11.2384,-15.6170,149.0186,,,,
05_S2,16/05/2023,16:19:30.500,0.1084,0.1392,0.9321,-90.6906,-9.2850,11.6806,11.2384,-15.6170,149.0186,,,,
05_S2,16/05/2023,16:19:30.600,0.0796,-0.0698,1.0422,-125.8011,-18.2343,48.5306,16.9306,-17.8063,154.7108,,,,
05_S2,16/05/2023,16:19:30.700,0.1401,-0.2527,0.9893,-84.0912,0.8698,42.6865,22.9147,-19.9956,159.2354,,,,
05_S2,16/05/2023,16:19:30.800,0.0234,-0.4138,0.8962,-144.0353,34.4238,26.0239,30.3583,-19.8497,161.4247,,,,
05_S2,16/05/2023,16:19:30.900,0.1128,-0.7898,0.4846,-250.0000,-5.8060,-3.8223,50.4999,-19.2659,159.0894,,,,
05_S2,16/05/2023,16:19:31.000,0.0750,-0.9653,0.2349,-183.9828,-15.7852,-6.4545,62.1762,-19.5578,152.6675,Inactive,0,22.87,
05_S2,16/05/2023,16:19:31.100,0.1052,-1.0518,-0.1665,-202.3468,-7.7744,-2.6169,62.1762,-19.5578,152.6675,,,,
05_S2,16/05/2023,16:19:31.200,0.0203,-0.9199,-0.2925,-81.3522,-1.7700,39.1541,69.7658,-19.5578,141.2831,,,,
05_S2,16/05/2023,16:19:31.300,0.0017,-0.8960,-0.3516,-65.4678,-7.0572,10.4523,70.9334,-18.0982,136.6126,,,,
05_S2,16/05/2023,16:19:31.400,-0.0044,-0.8674,-0.4814,-65.7349,-1.4801,7.9422,72.2470,-16.7847,130.6285,,,,
05_S2,16/05/2023,16:19:31.500,-0.0686,-0.7761,-0.5918,-48.2178,-1.6098,13.4125,73.8525,-15.7630,128.1473,,,,
05_S2,16/05/2023,16:19:31.600,-0.0405,-0.8228,-0.6323,-53.5660,-0.4578,2.3422,73.1228,-16.2008,124.2065,,,,
05_S2,16/05/2023,16:19:31.700,-0.0374,-0.5981,-0.7678,-74.0051,4.1809,-0.2365,73.1228,-16.2008,124.2065,,,,
05_S2,16/05/2023,16:19:31.800,-0.0613,-0.5457,-0.8459,-72.9828,2.6474,9.4452,71.6632,-15.9089,117.7846,,,,
05_S2,16/05/2023,16:19:31.900,-0.0164,-0.4729,-0.8796,-75.7828,29.0222,10.6583,69.6199,-16.2008,111.6545,,,,
05_S2,16/05/2023,16:19:32.000,0.0078,-0.3308,-0.9092,-76.9272,3.3264,4.0588,67.4306,-14.8873,105.3785,Inactive,0,22.87,
05_S2,16/05/2023,16:19:32.100,0.0073,-0.1592,-0.9792,-108.7265,-8.5983,11.8942,61.1546,-14.7413,101.4378,,,,
05_S2,16/05/2023,16:19:32.200,-0.0549,0.0320,-1.0139,-80.7877,1.6861,8.5831,61.1546,-14.7413,101.4378,,,,
05_S2,16/05/2023,16:19:32.300,-0.0273,0.1057,-1.0037,-92.6971,-18.4631,12.3291,56.6300,-14.3035,96.0375,,,,
05_S2,16/05/2023,16:19:32.400,-0.0081,0.2339,-0.9827,-22.2549,2.5024,17.0441,53.1271,-13.1358,92.5346,,,,
05_S2,16/05/2023,16:19:32.500,-0.0298,0.2705,-0.9321,-30.7388,17.1280,18.6386,48.6025,-12.9899,92.9724,,,,
05_S2,16/05/2023,16:19:32.600,0.0317,0.3940,-0.9336,-59.6237,2.8534,13.6108,45.5375,-13.1358,91.6589,,,,
05_S2,16/05/2023,16:19:32.700,-0.0574,0.4841,-0.8887,-101.7151,-13.2675,-9.6130,38.0939,-12.1141,90.9291,,,,
05_S2,16/05/2023,16:19:32.800,-0.0764,0.7698,-0.7793,-131.6299,-25.5356,10.1013,38.0939,-12.1141,90.9291,,,,
05_S2,16/05/2023,16:19:32.900,0.0205,0.8291,-0.5315,-101.7456,-0.4654,23.3536,27.5852,-9.7789,92.3886,,,,
05_S2,16/05/2023,16:19:33.000,-0.0049,0.8542,-0.5010,-53.3600,10.1166,7.7362,22.9147,-12.6980,94.1401,Inactive,0,22.91,
05_S2,16/05/2023,16:19:33.100,0.0569,0.9229,-0.3398,-114.1510,20.9579,7.9956,17.3685,-13.5737,96.7672,,,,
05_S2,16/05/2023,16:19:33.200,0.0964,1.0229,-0.0710,-116.2109,13.6261,6.3782,10.6546,-14.7413,101.1458,,,,
05_S2,16/05/2023,16:19:33.300,0.0679,1.0105,0.0208,-71.2509,11.9553,4.1504,7.1517,-14.1575,106.1083,,,,
05_S2,16/05/2023,16:19:33.400,0.0583,0.9646,0.0886,-58.4183,-0.0153,-10.6201,7.1517,-14.1575,106.1083,,,,
05_S2,16/05/2023,16:19:33.500,0.0476,0.9856,0.3608,-100.7080,11.8408,-3.8605,6.8598,-15.6170,110.1950,,,,
05_S2,16/05/2023,16:19:33.600,0.0330,0.9309,0.4026,-73.4558,13.2065,0.8469,3.0650,-15.0332,116.9088,,,,
05_S2,16/05/2023,16:19:33.700,0.0330,0.8665,0.5166,-69.6335,9.5901,5.0049,2.4812,-15.6170,122.7470,,,,
05_S2,16/05/2023,16:19:33.800,0.0405,0.8064,0.5630,-40.7333,5.4474,-6.0730,3.0650,-16.2008,125.3741,,,,
05_S2,16/05/2023,16:19:33.900,0.0103,0.7681,0.7100,-69.5877,-5.8670,5.4474,3.0650,-16.2008,125.3741,,,,
05_S2,16/05/2023,16:19:34.000,0.0745,0.6914,0.7744,-45.5933,-14.5493,17.1509,2.9191,-14.5954,131.6501,Inactive,0,22.93,
05_S2,16/05/2023,16:19:34.100,0.0996,0.6604,0.7634,-21.3699,-4.7379,2.0981,4.0867,-18.0982,134.2773,,,,
05_S2,16/05/2023,16:19:34.200,0.0901,0.6216,0.8030,-19.6915,-1.2283,2.3651,3.2110,-16.6387,134.2773,,,,
05_S2,16/05/2023,16:19:34.300,0.1187,0.5615,0.8135,-36.1557,-13.5880,5.5847,3.6488,-18.5361,137.9262,,,,
05_S2,16/05/2023,16:19:34.400,0.0923,0.4792,0.8699,-59.2117,15.5029,2.6932,6.1301,-18.6821,141.8669,,,,
05_S2,16/05/2023,16:19:34.500,0.0657,0.4402,0.9331,-33.4778,10.6201,-6.5460,6.1301,-18.6821,141.8669,,,,
05_S2,16/05/2023,16:19:34.600,0.0574,0.3833,0.9360,-13.9999,-1.2817,-24.2233,6.5679,-16.2008,144.0562,,,,
05_S2,16/05/2023,16:19:34.700,0.0830,0.3726,0.9956,-28.5873,3.4943,-4.3259,9.6329,-15.4711,144.4941,,,,
05_S2,16/05/2023,16:19:34.800,0.0095,0.3062,0.9243,-26.7868,5.2490,-0.3433,9.7789,-15.3251,146.6834,,,,
05_S2,16/05/2023,16:19:34.900,0.0417,0.2512,0.9868,-29.4113,-7.9269,4.4632,11.5303,-15.9089,148.4348,,,,
05_S2,16/05/2023,16:19:35.000,0.0713,0.1750,1.0347,-49.9649,0.6332,13.3514,14.1575,-16.4928,151.6458,Inactive,0,22.94,
05_S2,16/05/2023,16:19:35.100,0.0491,0.0535,0.9641,-91.4459,14.1373,14.0152,14.1575,-16.4928,151.6458,,,,
05_S2,16/05/2023,16:19:35.200,0.0002,-0.1692,1.0085,-107.0709,3.0441,12.7869,20.4335,-16.0549,156.1704,,,,
05_S2,16/05/2023,16:19:35.300,0.0493,-0.3276,0.9233,-113.7314,-19.7983,1.6632,27.2933,-17.6604,160.9868,,,,
05_S2,16/05/2023,16:19:35.400,0.0979,-0.5698,0.8464,-111.9308,-22.1786,-2.9907,35.3208,-19.5578,162.3004,,,,
05_S2,16/05/2023,16:19:35.500,0.0901,-0.6367,0.7556,-79.9332,-3.0441,0.1602,42.3265,-19.8497,162.5923,,,,
05_S2,16/05/2023,16:19:35.600,0.0967,-0.7246,0.6621,-67.2226,-3.1281,5.2414,42.3265,-19.8497,162.5923,,,,
05_S2,16/05/2023,16:19:35.700,0.0684,-0.7910,0.5938,-60.7529,2.3270,10.0021,46.2673,-20.2876,160.6949,,,,
05_S2,16/05/2023,16:19:35.800,0.0527,-0.8867,0.4285,-97.2824,9.6893,9.0790,51.5216,-17.0766,158.6516,,,,
05_S2,16/05/2023,16:19:35.900,0.0276,-0.9709,0.2349,-122.1466,5.6686,8.7738,59.4031,-17.6604,155.7325,,,,
05_S2,16/05/2023,16:19:36.000,0.0137,-0.9768,0.1191,-67.5507,-1.4801,5.1422,63.6358,-16.3468,151.2079,Inactive,0,22.96,
05_S2,16/05/2023,16:19:36.100,0.0110,-0.9785,0.0173,-58.0444,-3.0899,9.7809,66.1170,-16.2008,148.4348,,,,
05_S2,16/05/2023,16:19:36.200,-0.0125,-0.9868,-0.1001,-67.4133,-5.1117,8.9569,66.1170,-16.2008,148.4348,,,,
05_S2,16/05/2023,16:19:36.300,-0.0657,-0.9526,-0.2236,-67.4667,-14.0533,17.1204,69.3280,-15.0332,143.4724,,,,
05_S2,16/05/2023,16:19:36.400,-0.0649,-0.9453,-0.3486,-53.4134,3.1509,5.0125,70.0577,-15.4711,137.4883,,,,
05_S2,16/05/2023,16:19:36.500,-0.0447,-0.8774,-0.3721,-32.1503,13.1073,-0.3357,71.5173,-15.1792,135.7368,,,,
05_S2,16/05/2023,16:19:36.600,-0.0422,-0.8723,-0.5110,-78.7506,-0.1755,-15.1749,72.1011,-16.0549,130.4825,,,,
05_S2,16/05/2023,16:19:36.700,-0.0129,-0.7781,-0.6140,-82.6416,-2.7542,-13.4201,71.8092,-15.7630,123.4767,,,,
05_S2,16/05/2023,16:19:36.800,-0.0015,-0.7136,-0.7456,-65.1321,3.5477,-6.4697,71.8092,-15.7630,123.4767,,,,
05_S2,16/05/2023,16:19:36.900,0.0391,-0.6099,-0.7822,-62.4771,17.1127,-1.5793,71.9551,-17.0766,118.0765,,,,
05_S2,16/05/2023,16:19:37.000,0.0254,-0.5464,-0.8108,-38.2614,11.2457,7.4539,72.1011,-17.2225,114.4276,Inactive,0,22.97,
05_S2,16/05/2023,16:19:37.100,0.0002,-0.5520,-0.8599,-7.7057,-2.8458,11.7798,71.6632,-16.4928,113.9898,,,,
05_S2,16/05/2023,16:19:37.200,0.0266,-0.5193,-0.8503,-29.3045,-6.1493,4.1809,69.6199,-15.6170,111.6545,,,,
05_S2,16/05/2023,16:19:37.300,0.0105,-0.4316,-0.8972,-45.1889,9.1553,1.9455,69.6199,-15.6170,111.6545,,,,
05_S2,16/05/2023,16:19:37.400,0.0127,-0.3730,-0.9099,-44.0216,-1.1597,1.2054,68.4522,-15.6170,107.8597,,,,
05_S2,16/05/2023,16:19:37.500,0.0049,-0.2812,-0.9685,-53.6270,2.2049,5.1880,66.5548,-16.0549,104.7947,,,,
05_S2,16/05/2023,16:19:37.600,0.0088,-0.2024,-0.9788,-32.8445,-3.4485,11.9705,65.6791,-15.1792,101.8756,,,,
05_S2,16/05/2023,16:19:37.700,-0.0059,-0.1567,-0.9907,-41.3589,-13.9236,-1.1215,62.3222,-12.9899,99.9782,,,,
05_S2,16/05/2023,16:19:37.800,-0.0007,-0.0227,-1.0378,-39.9857,-0.5798,-0.1984,60.8627,-14.7413,97.9349,,,,
05_S2,16/05/2023,16:19:37.900,-0.0603,0.0691,-1.0347,-106.8420,-8.5983,-21.1182,60.8627,-14.7413,97.9349,,,,
05_S2,16/05/2023,16:19:38.000,-0.1016,0.2510,-0.9556,-105.2628,-37.5595,-3.6392,52.2514,-13.1358,94.2860,Inactive,0,22.98,
05_S2,16/05/2023,16:19:38.100,-0.1443,0.4946,-0.8828,-123.2529,-27.3666,11.8256,45.5375,-11.6763,91.6589,,,,
05_S2,16/05/2023,16:19:38.200,-0.1062,0.7058,-0.7310,-116.1346,8.3923,20.9732,35.6127,-11.9682,90.7831,,,,
05_S2,16/05/2023,16:19:38.300,-0.0273,0.7744,-0.5566,-146.8735,10.2844,30.1971,24.8121,-13.1358,91.9508,,,,
05_S2,16/05/2023,16:19:38.400,0.0149,0.9644,-0.3162,-157.4326,4.9667,25.1923,14.8873,-14.3035,98.3727,,,,
05_S2,16/05/2023,16:19:38.500,0.0193,1.0234,-0.0771,-130.5771,3.2120,4.1046,14.8873,-14.3035,98.3727,,,,
05_S2,16/05/2023,16:19:38.600,0.0151,0.9775,0.0432,-128.1052,0.3967,16.4261,10.0708,-14.1575,105.5245,,,,
05_S2,16/05/2023,16:19:38.700,0.0769,0.9231,0.3914,-127.2125,4.8752,20.5994,4.2327,-16.4928,116.3250,,,,
05_S2,16/05/2023,16:19:38.800,0.0850,0.9009,0.4451,-56.4117,10.5591,3.6240,3.0650,-16.2008,119.2441,,,,
05_S2,16/05/2023,16:19:38.900,0.0527,0.8667,0.5173,-47.9889,12.1231,2.2583,2.1893,-17.0766,122.7470,,,,
05_S2,16/05/2023,16:19:39.000,0.0320,0.7744,0.6245,-69.7708,16.5253,-9.3155,2.1893,-17.0766,122.7470,Inactive,0,23.01,
05_S2,16/05/2023,16:19:39.100,0.0244,0.6802,0.7612,-91.1407,-0.0839,8.3237,2.3353,-16.6387,129.6068,,,,
05_S2,16/05/2023,16:19:39.200,0.1001,0.5532,0.8179,-69.1147,-28.6942,-0.8545,4.0867,-17.5144,136.0288,,,,
05_S2,16/05/2023,16:19:39.300,0.0955,0.4941,0.8999,-74.6002,-23.7885,-12.1689,5.9841,-17.9523,140.8452,,,,
05_S2,16/05/2023,16:19:39.400,0.1584,0.3025,0.9705,-94.0628,-28.3203,1.4343,9.7789,-19.4118,146.6834,,,,
05_S2,16/05/2023,16:19:39.500,0.1636,0.1926,0.9746,-79.0558,-3.3188,4.8447,13.7196,-19.2659,151.4998,,,,
05_S2,16/05/2023,16:19:39.600,0.1338,0.0881,0.9893,-73.6847,18.3563,3.1586,13.7196,-19.2659,151.4998,,,,
05_S2,16/05/2023,16:19:39.700,0.1008,-0.0488,0.9746,-68.9468,23.4833,5.0507,18.8280,-17.0766,154.5649,,,,
05_S2,16/05/2023,16:19:39.800,0.1147,-0.1443,0.9880,-45.6161,-16.7923,-0.8774,20.2876,-16.7847,157.4839,,,,
05_S2,16/05/2023,16:19:39.900,0.1553,-0.1943,0.9788,-31.0516,-20.7672,-0.7095,24.3743,-19.4118,159.2354,,,,
05_S2,16/05/2023,16:19:40.000,0.1750,-0.2922,0.9802,-46.2952,-11.5738,7.6904,27.7312,-20.1416,159.3813,Inactive,0,22.99,
05_S2,16/05/2023,16:19:40.100,0.2122,-0.4597,1.0955,-55.9616,-0.7553,16.6702,30.7962,-18.2442,160.6949,,,,
05_S2,16/05/2023,16:19:40.200,0.0088,-0.5083,0.8206,-109.3445,64.0030,44.7617,30.7962,-18.2442,160.6949,,,,
05_S2,16/05/2023,16:19:40.300,0.0183,-0.7349,0.6594,-141.1819,7.0419,1.8997,40.8670,-15.7630,161.1328,,,,
05_S2,16/05/2023,16:19:40.400,0.0217,-0.8052,0.5654,-70.6100,-7.2327,-10.7269,47.8728,-16.6387,161.4247,,,,
05_S2,16/05/2023,16:19:40.500,0.0840,-0.9009,0.3506,-123.4665,-21.4691,-13.9313,56.1921,-17.6604,157.7758,,,,
05_S2,16/05/2023,16:19:40.600,0.0737,-0.9419,0.2319,-89.1571,-11.9629,-5.4626,61.1546,-19.4118,152.2296,,,,
05_S2,16/05/2023,16:19:40.700,0.0374,-0.9783,0.0642,-111.9995,-3.7079,18.3563,61.1546,-19.4118,152.2296,,,,
05_S2,16/05/2023,16:19:40.800,-0.0144,-0.9883,-0.1917,-94.1772,-1.8082,34.2255,66.2629,-17.8063,146.5374,,,,
05_S2,16/05/2023,16:19:40.900,-0.0273,-0.9590,-0.2805,-102.9739,-23.1247,21.9650,68.7441,-15.3251,140.2614,,,,
05_S2,16/05/2023,16:19:41.000,-0.0410,-0.8872,-0.4194,-76.4618,7.6370,-4.6997,71.5173,-14.5954,132.8178,Inactive,0,23.04,
05_S2,16/05/2023,16:19:41.100,-0.0398,-0.8635,-0.5427,-42.4194,9.0942,-3.8376,73.1228,-16.4928,130.3366,,,,
05_S2,16/05/2023,16:19:41.200,-0.0420,-0.8215,-0.5757,-26.4130,3.0441,2.3880,72.8308,-15.6170,126.5418,,,,
05_S2,16/05/2023,16:19:41.300,-0.0364,-0.7507,-0.6287,-46.1884,0.2136,0.4578,72.8308,-15.6170,126.5418,,,,
05_S2,16/05/2023,16:19:41.400,-0.0449,-0.6958,-0.7517,-67.0700,1.2512,-3.7460,72.3930,-15.7630,124.9363,,,,
05_S2,16/05/2023,16:19:41.500,-0.0247,-0.6284,-0.7695,-55.4657,7.4234,-2.1515,72.6849,-15.4711,117.9305,,,,
05_S2,16/05/2023,16:19:41.600,-0.0134,-0.5417,-0.8225,-53.8483,2.9602,-3.0060,71.0794,-16.4928,114.5736,,,,
05_S2,16/05/2023,16:19:41.700,-0.0081,-0.4575,-0.8767,-59.6085,-4.2038,4.0207,69.9118,-15.3251,110.1950,,,,
05_S2,16/05/2023,16:19:41.800,-0.0254,-0.3936,-0.9438,-39.2532,4.8447,4.5090,68.7441,-15.9089,107.5678,,,,
05_S2,16/05/2023,16:19:41.900,-0.0149,-0.3093,-0.9561,-47.4014,7.7057,4.0970,68.7441,-15.9089,107.5678,,,,
05_S2,16/05/2023,16:19:42.000,-0.0137,-0.2090,-0.9712,-66.6885,-2.5330,13.4888,64.8034,-15.7630,102.1675,Inactive,0,23.05,
05_S2,16/05/2023,16:19:42.100,-0.0115,-0.0681,-1.0168,-55.5115,0.9460,12.8632,62.0303,-15.3251,99.1025,,,,
05_S2,16/05/2023,16:19:42.200,-0.0159,0.0217,-1.0234,-54.9240,0.0839,8.9722,58.3814,-14.0115,96.9132,,,,
05_S2,16/05/2023,16:19:42.300,-0.0347,0.0894,-0.9856,-52.1622,-17.4713,3.7766,54.4407,-14.4494,95.0158,,,,
05_S2,16/05/2023,16:19:42.400,-0.0273,0.1594,-1.0149,-30.0446,5.8212,1.9760,54.4407,-14.4494,95.0158,,,,
05_S2,16/05/2023,16:19:42.500,-0.0078,0.2344,-0.9685,-37.7731,4.0436,-4.0512,54.1488,-15.0332,92.9724,,,,
05_S2,16/05/2023,16:19:42.600,-0.0095,0.2825,-0.9675,-42.5491,7.6981,1.6022,50.6459,-13.8656,92.9724,,,,
05_S2,16/05/2023,16:19:42.700,0.0098,0.3438,-0.9631,-33.1039,-1.3123,3.4103,47.5809,-14.5954,90.1993,,,,
05_S2,16/05/2023,16:19:42.800,-0.0518,0.4312,-0.9116,-46.1578,-13.6795,-1.2360,45.0997,-14.4494,91.5129,,,,
05_S2,16/05/2023,16:19:42.900,-0.0713,0.4968,-0.8887,-33.9813,-16.5558,-3.3798,41.1589,-12.8439,90.7831,,,,
05_S2,16/05/2023,16:19:43.000,-0.0728,0.5500,-0.8403,-50.2625,-11.5356,-0.5035,41.1589,-12.8439,90.7831,Inactive,0,23.07,
05_S2,16/05/2023,16:19:43.100,-0.0662,0.6411,-0.8020,-53.5583,7.7820,6.3705,38.6777,-11.5303,90.3453,,,,
05_S2,16/05/2023,16:19:43.200,-0.0417,0.7388,-0.6836,-82.4203,2.6932,6.5842,33.1315,-13.5737,90.3453,,,,
05_S2,16/05/2023,16:19:43.300,-0.0239,0.8159,-0.5613,-90.9729,0.4272,9.1019,26.4176,-13.5737,91.8048,,,,
05_S2,16/05/2023,16:19:43.400,0.0059,0.9041,-0.3962,-99.0372,2.3041,13.6871,19.7037,-14.7413,94.1401,,,,
05_S2,16/05/2023,16:19:43.500,0.0193,0.9626,-0.2942,-77.3392,3.8147,13.2980,14.5954,-15.7630,98.3727,,,,
05_S2,16/05/2023,16:19:43.600,0.0447,0.9976,-0.1682,-68.1992,0.6332,10.1242,14.5954,-15.7630,98.3727,,,,
05_S2,16/05/2023,16:19:43.700,0.0959,0.9993,0.0300,-102.2491,5.4703,15.7318,11.0925,-15.4711,102.1675,,,,
05_S2,16/05/2023,16:19:43.800,0.0740,1.0159,0.1399,-78.2166,18.2495,3.3188,5.6922,-16.4928,107.5678,,,,
05_S2,16/05/2023,16:19:43.900,0.0657,0.9695,0.3074,-70.0989,3.2730,-4.5166,4.2327,-17.6604,112.2383,,,,
05_S2,16/05/2023,16:19:44.000,0.0620,0.9534,0.3792,-43.9377,7.6675,-1.6861,2.7731,-17.3685,116.3250,Inactive,0,23.12,
05_S2,16/05/2023,16:19:44.100,0.0461,0.9080,0.4934,-73.2346,2.4948,13.2599,2.7731,-17.3685,116.3250,,,,
05_S2,16/05/2023,16:19:44.200,0.1116,0.8291,0.5737,-84.2590,-4.2114,16.1057,1.6055,-18.2442,124.4984,,,,
05_S2,16/05/2023,16:19:44.300,0.1226,0.7383,0.7717,-92.7277,-5.2795,-3.1204,3.6488,-18.5361,129.7528,,,,
05_S2,16/05/2023,16:19:44.400,0.0815,0.6265,0.7896,-42.9916,7.4844,0.3815,4.0867,-17.5144,135.1530,,,,
05_S2,16/05/2023,16:19:44.500,0.1538,0.5771,0.8066,-71.5332,-30.6168,6.0120,4.8165,-20.8714,139.3857,,,,
05_S2,16/05/2023,16:19:44.600,0.1738,0.3999,0.9402,-76.8585,-10.1166,3.5019,8.1734,-20.1416,143.6183,,,,
05_S2,16/05/2023,16:19:44.700,0.1294,0.3074,0.9551,-60.9970,3.8147,-0.3738,8.1734,-20.1416,143.6183,,,,
05_S2,16/05/2023,16:19:44.800,0.1343,0.2314,0.9265,-66.4902,10.6201,1.9531,9.3410,-18.6821,149.1646,,,,
05_S2,16/05/2023,16:19:44.900,0.1663,0.1558,0.9521,-54.5883,5.5161,0.5264,13.7196,-18.9740,151.7917,,,,
05_S2,16/05/2023,16:19:45.000,0.1252,-0.0327,1.0603,-39.7491,12.0697,-1.8768,17.3685,-17.9523,154.5649,Inactive,0,23.1,
05_S2,16/05/2023,16:19:45.100,0.0562,-0.0212,0.9978,-47.8134,7.3090,4.5395,18.9740,-17.2225,157.0461,,,,
05_S2,16/05/2023,16:19:45.200,0.0986,-0.1028,0.9634,-32.5775,-17.9443,10.7269,22.3309,-20.8714,158.3597,,,,
05_S2,16/05/2023,16:19:45.300,0.0876,-0.2583,0.9924,-66.9327,14.0381,24.5514,22.3309,-20.8714,158.3597,,,,
05_S2,16/05/2023,16:19:45.400,-0.0115,-0.3779,0.9395,-81.4896,37.5137,12.8784,26.7095,-19.4118,159.8192,,,,
05_S2,16/05/2023,16:19:45.500,0.0518,-0.4998,0.8721,-105.6519,-26.2070,-17.7917,33.4234,-17.0766,161.2787,,,,
05_S2,16/05/2023,16:19:45.600,0.1116,-0.6560,0.7124,-113.9297,-15.0452,2.1362,42.7644,-19.7037,162.7383,,,,
05_S2,16/05/2023,16:19:45.700,0.0833,-0.8398,0.5430,-121.3226,-7.8888,14.5569,50.4999,-19.8497,159.0894,,,,
05_S2,16/05/2023,16:19:45.800,0.0439,-0.8989,0.3335,-157.1121,13.3667,19.0964,50.4999,-19.8497,159.0894,,,,
05_S2,16/05/2023,16:19:45.900,-0.0222,-0.9915,0.0732,-141.5329,15.9912,22.4686,61.0086,-16.3468,153.5432,,,,
05_S2,16/05/2023,16:19:46.000,-0.0337,-0.9780,-0.1782,-136.1771,2.1133,23.9410,66.5548,-16.0549,145.9536,Inactive,0,23.14,
05_S2,16/05/2023,16:19:46.100,-0.0715,-0.9805,-0.3733,-85.7086,-7.8354,23.7579,69.7658,-13.7196,137.1964,,,,
05_S2,16/05/2023,16:19:46.200,-0.1270,-0.9248,-0.3452,-38.1622,-18.0969,2.9068,71.0794,-13.5737,135.8828,,,,
05_S2,16/05/2023,16:19:46.300,-0.1545,-0.8479,-0.4241,-25.9094,-3.2883,-0.7324,72.3930,-14.0115,133.6935,,,,
05_S2,16/05/2023,16:19:46.400,-0.0928,-0.8884,-0.6018,-69.9692,-10.6125,-27.9083,72.3930,-14.0115,133.6935,,,,
05_S2,16/05/2023,16:19:46.500,-0.0999,-0.8013,-0.6362,-71.2509,-0.5798,-5.8060,73.5606,-15.1792,127.2715,,,,
05_S2,16/05/2023,16:19:46.600,-0.0408,-0.6790,-0.7371,-62.7975,20.6909,-3.2501,73.5606,-16.0549,122.0172,,,,
05_S2,16/05/2023,16:19:46.700,-0.0176,-0.5808,-0.8674,-94.0475,35.2020,3.6774,71.0794,-16.2008,116.9088,,,,
05_S2,16/05/2023,16:19:46.800,0.0308,-0.4453,-0.8762,-88.4247,20.6528,5.1956,68.0144,-18.0982,108.0057,,,,
05_S2,16/05/2023,16:19:46.900,0.0034,-0.3279,-0.9150,-100.4257,-22.0642,9.3460,62.7600,-15.1792,102.7513,,,,
05_S2,16/05/2023,16:19:47.000,-0.0430,-0.1331,-0.9868,-65.4602,-11.5128,3.8834,62.7600,-15.1792,102.7513,Inactive,0,23.14,
05_S2,16/05/2023,16:19:47.100,-0.0645,-0.0232,-1.0308,-69.9692,-4.2419,8.4457,60.2788,-14.4494,98.5187,,,,
05_S2,16/05/2023,16:19:47.200,-0.0354,0.0598,-1.0059,-67.4286,3.5324,-4.1504,57.6517,-14.1575,95.3077,,,,
05_S2,16/05/2023,16:19:47.300,-0.0405,0.1370,-0.9934,-42.1066,-4.0436,-0.0534,52.6892,-13.8656,93.5563,,,,
05_S2,16/05/2023,16:19:47.400,-0.0588,0.2610,-0.9841,-34.7061,-6.4392,8.0261,51.5216,-13.5737,91.5129,,,,
05_S2,16/05/2023,16:19:47.500,-0.0686,0.3450,-0.9976,-47.3709,-8.2779,5.7373,51.5216,-13.5737,91.5129,,,,
05_S2,16/05/2023,16:19:47.600,-0.0916,0.4265,-0.8884,-89.9506,-21.4462,9.1553,47.5809,-13.7196,91.3670,,,,
05_S2,16/05/2023,16:19:47.700,-0.0874,0.5161,-0.8359,-67.3294,-0.8621,1.8845,39.1156,-11.9682,91.3670,,,,
05_S2,16/05/2023,16:19:47.800,-0.0627,0.6831,-0.7529,-69.2368,3.0441,7.6141,35.1748,-12.1141,91.5129,,,,
05_S2,16/05/2023,16:19:47.900,-0.0671,0.7861,-0.6636,-64.9033,0.8392,9.1171,29.3367,-12.6980,90.6372,,,,
05_S2,16/05/2023,16:19:48.000,-0.0566,0.8394,-0.5337,-97.2748,1.3504,3.6621,23.7904,-12.9899,93.2644,Inactive,0,23.17,
05_S2,16/05/2023,16:19:48.100,-0.0007,0.8792,-0.3389,-140.5258,-1.2131,19.9432,23.7904,-12.9899,93.2644,,,,
05_S2,16/05/2023,16:19:48.200,0.0549,1.0686,-0.1848,-75.9354,-3.4485,13.9923,13.8656,-13.2818,98.8106,,,,
05_S2,16/05/2023,16:19:48.300,-0.0701,0.9612,-0.1301,-32.9742,-6.4850,-17.3111,13.1358,-12.2601,101.2918,,,,
05_S2,16/05/2023,16:19:48.400,-0.0757,1.0098,-0.0347,-49.6902,1.6861,-5.5389,9.3410,-12.5520,103.9190,,,,
05_S2,16/05/2023,16:19:48.500,-0.0073,1.0171,0.0894,-67.8024,1.5717,4.6005,7.2977,-13.7196,108.0057,,,,
05_S2,16/05/2023,16:19:48.600,-0.0144,0.9810,0.2668,-93.7195,12.2299,13.6032,7.2977,-13.7196,108.0057,,,,
05_S2,16/05/2023,16:19:48.700,-0.0134,0.9697,0.3652,-69.4122,16.7847,4.9057,4.8165,-15.6170,113.9898,,,,
05_S2,16/05/2023,16:19:48.800,0.0083,0.8916,0.4834,-65.8722,1.1597,9.9335,3.5029,-14.5954,119.6820,,,,
05_S2,16/05/2023,16:19:48.900,0.0327,0.8508,0.5476,-55.2368,-0.3281,10.7803,1.7514,-16.9306,123.1848,,,,
05_S2,16/05/2023,16:19:49.000,0.0342,0.7620,0.6499,-60.4401,-10.4828,-6.7520,2.0434,-16.0549,129.0230,Inactive,0,23.14,
05_S2,16/05/2023,16:19:49.100,0.0210,0.7290,0.7173,-41.0080,-10.8490,-11.0016,3.6488,-15.0332,132.0880,,,,
05_S2,16/05/2023,16:19:49.200,0.0408,0.6853,0.7759,-36.9797,-12.4283,3.0670,3.6488,-15.0332,132.0880,,,,
05_S2,16/05/2023,16:19:49.300,0.0454,0.6418,0.8047,-34.3704,-6.8588,4.3259,4.6705,-15.7630,134.5692,,,,
05_S2,16/05/2023,16:19:49.400,0.0637,0.6082,0.7908,-21.8964,-5.4092,-1.2817,4.8165,-16.7847,136.7585,,,,
05_S2,16/05/2023,16:19:49.500,0.0801,0.5435,0.8147,-31.8222,4.2343,0.0458,4.0867,-15.7630,138.9478,,,,
05_S2,16/05/2023,16:19:49.600,0.0515,0.5198,0.8606,-33.1650,5.7220,-2.1973,6.5679,-17.0766,141.4290,,,,
05_S2,16/05/2023,16:19:49.700,0.0588,0.4631,0.9036,-33.0963,-7.6218,-0.8392,6.2760,-16.4928,143.4724,,,,
05_S2,16/05/2023,16:19:49.800,0.0549,0.3848,0.9370,-41.8091,-1.8463,-1.8921,6.2760,-16.4928,143.4724,,,,
05_S2,16/05/2023,16:19:49.900,0.0667,0.3840,0.9275,-27.8244,-7.2937,-6.4850,8.6113,-15.9089,146.0996,,,,
05_S2,16/05/2023,16:19:50.000,0.0139,0.2800,0.9172,-33.0734,0.5493,-12.6038,10.6546,-14.7413,146.9753,Inactive,0,23.18,
05_S2,16/05/2023,16:19:50.100,0.0886,0.2695,0.9829,-17.3492,-0.4272,-2.0447,12.6980,-15.3251,149.8943,,,,
05_S2,16/05/2023,16:19:50.200,0.0918,0.1628,1.0330,-60.7986,-20.9808,13.3972,14.4494,-16.2008,152.2296,,,,
05_S2,16/05/2023,16:19:50.300,0.1509,0.0300,1.0574,-40.8173,-11.5280,16.1209,14.4494,-16.2008,152.2296,,,,
05_S2,16/05/2023,16:19:50.400,0.1194,-0.0051,0.9761,-73.9822,11.7645,24.6658,16.2008,-17.9523,154.8568,,,,
05_S2,16/05/2023,16:19:50.500,-0.0166,-0.2432,1.0300,-123.3063,31.3339,34.4009,22.9147,-17.6604,158.3597,,,,
05_S2,16/05/2023,16:19:50.600,0.0754,-0.4319,0.8892,-98.1216,-19.3024,-3.1357,31.5260,-17.8063,162.3004,,,,
05_S2,16/05/2023,16:19:50.700,0.0735,-0.5322,0.8235,-61.3098,-2.8687,3.4714,37.2182,-17.3685,163.0302,,,,
05_S2,16/05/2023,16:19:50.800,0.0542,-0.5981,0.7986,-60.0433,-1.6327,-6.0577,40.4291,-18.8280,161.5706,,,,
05_S2,16/05/2023,16:19:50.900,0.0840,-0.7388,0.6416,-101.8677,-4.8065,-0.7629,40.4291,-18.8280,161.5706,,,,
05_S2,16/05/2023,16:19:51.000,0.0908,-0.8386,0.5139,-94.9173,-2.9678,4.2801,48.0187,-17.9523,160.4030,Inactive,0,23.19,
05_S2,16/05/2023,16:19:51.100,-0.0396,-0.9856,0.2478,-160.8505,31.7459,45.5170,56.1921,-16.7847,156.0244,,,,
05_S2,16/05/2023,16:19:51.200,-0.0820,-0.9878,0.0750,-102.2339,8.9188,31.8680,63.4898,-14.4494,148.1429,,,,
05_S2,16/05/2023,16:19:51.300,-0.0850,-0.9712,0.0149,-51.8799,-3.5095,-0.2060,66.4089,-12.9899,145.5157,,,,
05_S2,16/05/2023,16:19:51.400,-0.0845,-0.9763,-0.0962,-48.4009,-2.9602,1.5717,67.5765,-13.8656,143.4724,,,,
05_S2,16/05/2023,16:19:51.500,-0.0894,-0.9495,-0.1672,-32.9895,-7.2556,-5.6458,67.5765,-13.8656,143.4724,,,,
05_S2,16/05/2023,16:19:51.600,-0.0767,-0.9517,-0.2595,-63.5529,-13.8016,-10.0403,68.5982,-14.8873,141.5750,,,,
05_S2,16/05/2023,16:19:51.700,-0.0732,-0.9048,-0.4937,-103.2181,-17.5247,-2.5330,72.3930,-14.8873,135.1530,,,,
05_S2,16/05/2023,16:19:51.800,-0.0901,-0.8833,-0.5652,-83.0612,-30.7388,-35.2554,73.1228,-17.0766,129.7528,,,,
05_S2,16/05/2023,16:19:51.900,-0.0452,-0.7241,-0.6487,-91.1179,6.7062,-2.5787,72.8308,-17.0766,122.1632,,,,
05_S2,16/05/2023,16:19:52.000,-0.0208,-0.5444,-0.8225,-143.0435,12.0392,11.6959,72.8308,-17.0766,122.1632,Inactive,0,23.19,
05_S2,16/05/2023,16:19:52.100,-0.0457,-0.3762,-0.9390,-114.8224,-1.5488,19.6762,69.3280,-17.0766,111.3626,,,,
05_S2,16/05/2023,16:19:52.200,-0.0815,-0.2297,-1.0066,-56.8924,1.6632,8.9951,67.2846,-15.9089,103.4811,,,,
05_S2,16/05/2023,16:19:52.300,-0.0828,-0.1294,-0.9919,-70.2972,-0.2975,14.8621,64.0736,-17.0766,101.1458,,,,
05_S2,16/05/2023,16:19:52.400,-0.0486,0.0166,-0.9890,-76.6144,6.1111,16.9983,57.5057,-14.5954,97.2051,,,,
05_S2,16/05/2023,16:19:52.500,-0.0474,0.1135,-0.9836,-45.2423,-2.9831,11.5280,56.1921,-14.4494,93.8482,,,,
05_S2,16/05/2023,16:19:52.600,-0.0657,0.1875,-0.9839,-74.6002,-13.4201,-0.0839,56.1921,-14.4494,93.8482,,,,
05_S2,16/05/2023,16:19:52.700,-0.0618,0.3013,-0.9502,-46.4859,4.2877,0.3357,50.6459,-13.8656,92.6805,,,,
05_S2,16/05/2023,16:19:52.800,-0.0647,0.4595,-0.9177,-66.0553,10.9406,17.3035,45.6835,-13.8656,90.9291,,,,
05_S2,16/05/2023,16:19:52.900,-0.0281,0.5396,-0.9121,-37.7121,6.1340,5.7220,41.5968,-14.4494,90.0534,,,,
05_S2,16/05/2023,16:19:53.000,-0.0376,0.3896,-0.9084,19.7449,9.8343,-6.9962,43.3482,-14.4494,89.7615,Inactive,0,23.22,
05_S2,16/05/2023,16:19:53.100,-0.0225,0.3086,-0.8516,-9.5367,-15.1978,-13.7634,41.8887,-14.1575,89.1776,,,,
05_S2,16/05/2023,16:19:53.200,-0.0430,0.7622,-0.8201,-61.3403,-6.7520,21.4081,41.8887,-14.1575,89.1776,,,,
05_S2,16/05/2023,16:19:53.300,-0.0256,0.6484,-0.7913,-63.9648,5.3940,15.7166,35.7586,-14.1575,90.6372,,,,
05_S2,16/05/2023,16:19:53.400,0.0349,0.7129,-0.6943,-87.4100,4.1733,15.4190,30.3583,-15.1792,90.4912,,,,
05_S2,16/05/2023,16:19:53.500,0.0125,0.9443,-0.4268,-164.2303,-8.0795,18.3334,21.0173,-14.0115,93.1184,,,,
05_S2,16/05/2023,16:19:53.600,-0.0022,0.9897,-0.2141,-110.7788,-31.9366,-5.9509,12.6980,-12.9899,99.6863,,,,
05_S2,16/05/2023,16:19:53.700,0.0010,1.0068,-0.2043,-7.4463,-17.5552,-0.2670,12.6980,-12.9899,99.6863,,,,
05_S2,16/05/2023,16:19:53.800,0.0142,0.9868,-0.2061,-35.6064,8.9722,-7.0877,13.4277,-12.8439,100.7080,,,,
05_S2,16/05/2023,16:19:53.900,-0.0122,1.0061,-0.0996,-38.0173,-3.2654,-4.6082,11.6763,-11.9682,102.1675,,,,
05_S2,16/05/2023,16:19:54.000,0.0032,0.9612,0.0247,-79.6661,-3.7231,10.2844,8.7572,-11.9682,105.0866,Inactive,0,23.23,
05_S2,16/05/2023,16:19:54.100,0.0144,1.0305,0.3403,-147.2321,43.3197,15.1901,3.7948,-14.8873,115.3033,,,,
05_S2,16/05/2023,16:19:54.200,-0.0029,0.8958,0.4592,-82.2906,26.9241,-8.4229,3.3569,-15.3251,120.1198,,,,
05_S2,16/05/2023,16:19:54.300,-0.0212,0.8533,0.5439,-72.4869,9.6359,3.2349,3.3569,-15.3251,120.1198,,,,
05_S2,16/05/2023,16:19:54.400,0.0127,0.7502,0.6809,-66.8488,-6.0883,6.0806,3.7948,-16.3468,125.5201,,,,
05_S2,16/05/2023,16:19:54.500,0.0081,0.6934,0.7500,-64.3234,-5.9052,3.6316,4.0867,-16.3468,130.7744,,,,
05_S2,16/05/2023,16:19:54.600,0.0081,0.6274,0.8511,-61.6608,-3.0441,2.4490,4.3786,-14.5954,136.0288,,,,
05_S2,16/05/2023,16:19:54.700,0.0244,0.5554,0.8511,-43.5944,-2.6093,3.7231,5.1084,-16.2008,139.0938,,,,
05_S2,16/05/2023,16:19:54.800,0.0398,0.4648,0.8577,-55.0766,-11.2228,-1.1597,7.4436,-17.0766,142.8886,,,,
05_S2,16/05/2023,16:19:54.900,0.0820,0.3743,0.9192,-54.8325,-22.5143,-1.3580,7.4436,-17.0766,142.8886,,,,
05_S2,16/05/2023,16:19:55.000,0.1118,0.3098,0.9946,-30.8380,-11.7111,-5.5542,9.0491,-17.5144,147.1212,Inactive,0,23.22,
05_S2,16/05/2023,16:19:55.100,0.0828,0.2935,0.9387,-28.4348,7.2479,1.7624,10.6546,-17.0766,148.7267,,,,
05_S2,16/05/2023,16:19:55.200,0.0649,0.1504,1.0085,-32.7759,-1.9455,-1.4114,12.1141,-16.4928,150.1863,,,,
05_S2,16/05/2023,16:19:55.300,0.0640,0.0991,1.0027,-39.0625,-7.0419,10.8566,13.8656,-17.9523,152.5215,,,,
05_S2,16/05/2023,16:19:55.400,0.1040,0.0676,1.0068,-55.3055,8.0185,21.2250,13.8656,-17.9523,152.5215,,,,
05_S2,16/05/2023,16:19:55.500,0.0552,-0.1199,1.0017,-98.2361,0.4959,13.3743,18.5361,-18.8280,154.2730,,,,
05_S2,16/05/2023,16:19:55.600,0.1130,-0.3508,0.9490,-124.6109,-22.0718,-1.5106,24.8121,-19.8497,159.9651,,,,
05_S2,16/05/2023,16:19:55.700,0.1387,-0.5366,0.8257,-117.8513,-13.0615,11.4136,35.6127,-21.0173,161.7166,,,,
05_S2,16/05/2023,16:19:55.800,0.1228,-0.6750,0.7222,-101.5320,-7.9651,13.8092,42.7644,-21.1633,161.5706,,,,
05_S2,16/05/2023,16:19:55.900,0.1157,-0.7903,0.5942,-93.5898,-6.9733,12.2604,48.8945,-21.1633,159.2354,,,,
05_S2,16/05/2023,16:19:56.000,0.0974,-0.8433,0.5063,-66.7419,-7.2784,12.9929,48.8945,-21.1633,159.2354,Inactive,0,23.24,
05_S2,16/05/2023,16:19:56.100,0.0723,-0.9019,0.3711,-87.2192,-3.6621,15.9988,54.2947,-21.0173,156.7542,,,,
05_S2,16/05/2023,16:19:56.200,0.0081,-0.9702,0.1931,-103.5309,21.9345,30.1666,61.1546,-19.1199,153.1053,,,,
05_S2,16/05/2023,16:19:56.300,-0.0103,-0.9536,0.0615,-85.1364,4.9210,10.4980,64.8034,-17.2225,149.7484,,,,
05_S2,16/05/2023,16:19:56.400,-0.0098,-0.9819,-0.1765,-119.1483,0.4196,4.6616,70.3496,-18.0982,140.4074,,,,
05_S2,16/05/2023,16:19:56.500,-0.0159,-0.9807,-0.2981,-56.8466,0.1678,-10.9863,71.5173,-17.8063,137.7802,,,,
05_S2,16/05/2023,16:19:56.600,0.0056,-0.9443,-0.3354,-32.6767,0.3433,-4.3488,71.5173,-17.8063,137.7802,,,,
05_S2,16/05/2023,16:19:56.700,0.0322,-0.9265,-0.3879,-28.9459,12.5198,-13.6414,71.5173,-18.0982,135.7368,,,,
05_S2,16/05/2023,16:19:56.800,0.0344,-0.9329,-0.4187,-22.6974,-1.0834,3.4561,71.5173,-19.8497,133.6935,,,,
05_S2,16/05/2023,16:19:56.900,0.0020,-0.9009,-0.4365,-6.2103,7.5684,24.8032,71.9551,-17.9523,133.2556,,,,
05_S2,16/05/2023,16:19:57.000,-0.0471,-0.8308,-0.4397,-18.6844,9.3155,29.5334,72.1011,-14.5954,132.5259,Inactive,0,23.24,
05_S2,16/05/2023,16:19:57.100,-0.0308,-0.8416,-0.5129,-32.0740,7.8278,2.7313,72.1011,-14.5954,132.5259,,,,
05_S2,16/05/2023,16:19:57.200,-0.0410,-0.8240,-0.5747,-38.3301,-2.7847,-4.7836,72.8308,-15.0332,128.5851,,,,
05_S2,16/05/2023,16:19:57.300,-0.0320,-0.7888,-0.6292,-37.3001,0.8545,-4.9896,72.5389,-15.6170,125.6660,,,,
05_S2,16/05/2023,16:19:57.400,-0.0322,-0.7751,-0.6157,10.3531,-1.8845,-1.3809,73.5606,-15.4711,124.6444,,,,
05_S2,16/05/2023,16:19:57.500,-0.0176,-0.8042,-0.5991,22.4152,3.5477,-7.2479,72.1011,-15.1792,126.1039,,,,
05_S2,16/05/2023,16:19:57.600,-0.0029,-0.8472,-0.5754,18.1198,1.6556,-6.8130,72.3930,-16.9306,127.5634,,,,
05_S2,16/05/2023,16:19:57.700,0.0071,-0.8315,-0.5034,34.1263,1.3733,-7.1030,72.3930,-16.9306,127.5634,,,,
05_S2,16/05/2023,16:19:57.800,0.1130,-0.8496,-0.4631,27.8397,22.3846,-66.4291,72.9768,-18.6821,129.8987,,,,
05_S2,16/05/2023,16:19:57.900,0.2820,-0.8477,-0.4521,26.1536,31.2653,-84.4498,72.8308,-24.6662,131.5042,,,,
05_S2,16/05/2023,16:19:58.000,0.4407,-0.7788,-0.3298,38.4064,23.0103,-101.3870,72.8308,-29.9205,134.4233,Inactive,0,23.24,
05_S2,16/05/2023,16:19:58.100,0.6980,-0.7161,-0.2468,44.5633,43.8843,-171.9513,67.7225,-41.1589,138.9478,,,,
05_S2,16/05/2023,16:19:58.200,0.8262,-0.5596,-0.2214,9.2316,13.2904,-118.6676,62.4681,-46.4132,139.5316,,,,
05_S2,16/05/2023,16:19:58.300,0.8994,-0.4387,-0.2026,16.2048,-12.8098,-95.1004,62.4681,-46.4132,139.5316,,,,
05_S2,16/05/2023,16:19:58.400,0.9224,-0.2546,-0.2371,21.6141,-2.6245,-76.4999,57.5057,-49.6242,139.2397,,,,
05_S2,16/05/2023,16:19:58.500,0.9624,-0.1606,-0.2229,0.2289,4.8218,-77.0721,51.3757,-53.4190,138.6559,,,,
05_S2,16/05/2023,16:19:58.600,0.9998,-0.0344,-0.1882,11.1618,5.3024,-68.1152,48.1647,-54.5866,140.6993,,,,
05_S2,16/05/2023,16:19:58.700,0.9937,0.0320,-0.2031,18.6386,3.3569,-37.4680,44.9537,-55.1705,140.1155,,,,
05_S2,16/05/2023,16:19:58.800,0.9983,0.0339,-0.1873,5.1727,-0.8240,-9.8648,44.9537,-55.1705,140.1155,,,,
05_S2,16/05/2023,16:19:58.900,0.9993,0.0439,-0.1829,0.9232,1.5488,-5.8746,43.0563,-55.6083,140.5533,,,,
05_S2,16/05/2023,16:19:59.000,0.9985,0.0422,-0.1804,-3.0060,-3.9368,-3.6240,44.0780,-55.1705,142.4507,Inactive,0,23.26,
05_S2,16/05/2023,16:19:59.100,1.0005,0.0437,-0.1851,-0.6332,-0.4501,0.7553,42.3265,-56.0462,139.2397,,,,
05_S2,16/05/2023,16:19:59.200,0.9961,0.0337,-0.1777,3.2349,1.5335,1.5793,43.0563,-55.9002,141.1371,,,,
05_S2,16/05/2023,16:19:59.300,0.9939,0.0420,-0.1855,0.6790,-3.7308,1.3809,43.4942,-55.7543,141.2831,,,,
05_S2,16/05/2023,16:19:59.400,1.0105,0.0229,-0.2290,3.2501,-12.1994,2.4796,43.4942,-55.7543,141.2831,,,,
05_S2,16/05/2023,16:19:59.500,0.9849,0.0437,-0.2327,-2.1057,-8.8882,3.6011,44.2239,-56.1921,140.8452,,,,
05_S2,16/05/2023,16:19:59.600,1.0115,0.0139,-0.2268,-7.0801,-22.7966,-5.5618,43.9320,-56.4840,139.0938,,,,
05_S2,16/05/2023,16:19:59.700,0.9597,0.0608,-0.2932,-2.1744,-12.4512,-9.5215,42.7644,-56.1921,137.6342,,,,
05_S2,16/05/2023,16:19:59.800,0.9495,0.0327,-0.3452,19.1803,-23.3154,11.7493,43.0563,-57.3598,137.0504,,,,
05_S2,16/05/2023,16:19:59.900,0.9939,-0.0037,-0.4231,23.8800,-58.8150,17.6620,44.6618,-58.6733,133.4016,,,,
05_S2,16/05/2023,16:20:00.000,0.8855,-0.0420,-0.5479,6.4087,-89.9353,23.0865,44.6618,-58.6733,133.4016,Inactive,0,23.26,
05_S2,16/05/2023,16:20:00.100,0.7346,-0.1160,-0.6550,-10.1929,-84.6786,16.0370,45.8294,-58.0895,123.7687,,,,
05_S2,16/05/2023,16:20:00.200,0.6643,-0.1013,-0.8184,1.3657,-65.5060,2.2659,46.2673,-57.0679,119.8279,,,,
05_S2,16/05/2023,16:20:00.300,0.6541,-0.0725,-0.8145,16.5100,-49.1333,-2.0065,47.4349,-56.7760,115.7412,,,,
05_S2,16/05/2023,16:20:00.400,0.4973,-0.0935,-0.8909,7.4158,-74.3332,-2.6169,48.1647,-55.4624,110.6328,,,,
05_S2,16/05/2023,16:20:00.500,0.3062,-0.1262,-0.9631,11.6119,-118.9651,-8.4610,48.1647,-55.4624,110.6328,,,,
05_S2,16/05/2023,16:20:00.600,0.1079,-0.2485,-1.0381,46.0434,-130.8594,-2.9068,46.9971,-49.9161,102.1675,,,,
05_S2,16/05/2023,16:20:00.700,-0.0938,-0.2131,-1.0083,-0.3738,-117.6529,-4.4556,48.4566,-42.6185,96.3294,,,,
05_S2,16/05/2023,16:20:00.800,-0.4014,-0.0984,-0.9658,-42.9001,-135.0250,32.3563,47.8728,-35.3208,92.5346,,,,
05_S2,16/05/2023,16:20:00.900,-0.5518,0.0212,-0.8101,-55.3436,-158.4320,73.6847,41.7427,-23.0607,88.4479,,,,
05_S2,16/05/2023,16:20:01.000,-0.6819,0.1899,-0.6438,-23.8571,-178.3752,66.5359,40.4291,-9.4870,90.9291,Inactive,0,23.27,
05_S2,16/05/2023,16:20:01.100,-0.9077,0.1472,-0.2339,-33.8058,-208.8013,4.0054,40.4291,-9.4870,90.9291,,,,
05_S2,16/05/2023,16:20:01.200,-0.9661,0.1758,-0.0051,-19.8746,-133.5983,-15.7852,38.3858,2.7731,100.5620,,,,
05_S2,16/05/2023,16:20:01.300,-0.9526,0.1089,0.0388,5.1727,-97.3129,-22.5143,38.8237,7.5896,107.1299,,,,
05_S2,16/05/2023,16:20:01.400,-0.8987,0.1514,0.1689,20.4697,-83.6487,11.4288,39.5534,10.6546,114.2817,,,,
05_S2,16/05/2023,16:20:01.500,-0.9036,0.2266,0.5178,-35.0113,-108.6960,-7.9651,39.1156,12.2601,122.0172,,,,
05_S2,16/05/2023,16:20:01.600,-0.8562,0.0752,0.4905,-46.6003,-37.5214,-46.3333,39.1156,12.2601,122.0172,,,,
05_S2,16/05/2023,16:20:01.700,-0.7412,-0.2100,0.4646,-11.9934,-34.7214,-54.8935,39.1156,12.2601,122.0172,,,,
05_S2,16/05/2023,16:20:01.800,-0.6753,-0.1670,0.6377,18.0664,-63.3011,4.7455,46.1213,9.9248,128.7311,,,,
05_S2,16/05/2023,16:20:01.900,-0.7478,0.1216,0.8018,30.7083,-52.4216,30.4871,43.7861,11.6763,132.8178,,,,
05_S2,16/05/2023,16:20:02.000,-0.6199,0.0325,0.8767,3.2730,-63.7741,-4.6921,43.4942,9.3410,136.9045,Inactive,0,23.25,
05_S2,16/05/2023,16:20:02.100,-0.4880,0.0425,0.7273,-37.3688,-71.3120,-15.3351,43.6401,8.0274,140.5533,,,,
05_S2,16/05/2023,16:20:02.200,-0.3188,-0.1692,0.9526,-49.2935,-134.9258,-26.7410,43.6401,8.0274,140.5533,,,,
05_S2,16/05/2023,16:20:02.300,-0.1504,-0.1428,0.9629,14.9002,-88.5696,-14.8926,47.2890,2.9191,148.2889,,,,
05_S2,16/05/2023,16:20:02.400,0.1006,-0.0781,0.9189,5.5237,-127.9831,-25.7492,48.0187,-3.3569,154.2730,,,,
05_S2,16/05/2023,16:20:02.500,0.3743,0.0049,0.8396,7.7591,-156.9290,-48.1033,48.7485,-14.0115,159.6732,,,,
05_S2,16/05/2023,16:20:02.600,0.6011,0.0044,0.7642,-6.6223,-157.5394,-31.0059,49.9161,-26.5636,161.4247,,,,
05_S2,16/05/2023,16:20:02.700,0.7920,0.0139,0.5466,37.7350,-177.2995,-38.8641,46.2673,-38.0939,158.0677,,,,
05_S2,16/05/2023,16:20:02.800,0.9934,0.0090,0.4622,2.4719,-143.1351,8.6517,46.2673,-38.0939,158.0677,,,,
05_S2,16/05/2023,16:20:02.900,1.0481,0.0039,0.3191,21.5683,-61.8668,13.3820,48.0187,-45.6835,153.3972,,,,
05_S2,16/05/2023,16:20:03.000,1.0508,0.0308,0.1699,4.1580,-60.2570,13.0920,47.4349,-46.8511,152.5215,Inactive,0,23.28,
05_S2,16/05/2023,16:20:03.100,1.0037,-0.0974,0.0115,0.3586,-112.3047,38.0096,49.0404,-51.0838,145.0779,,,,
05_S2,16/05/2023,16:20:03.200,0.9282,-0.1880,-0.1526,6.9046,-82.5119,22.6669,50.4999,-52.8352,139.5316,,,,
05_S2,16/05/2023,16:20:03.300,0.9502,-0.1299,-0.2632,17.5018,-82.5958,-19.4168,50.4999,-52.8352,139.5316,,,,
05_S2,16/05/2023,16:20:03.400,0.9626,-0.0850,-0.3201,1.7929,-19.9814,-25.4593,48.7485,-55.7543,134.8611,,,,
05_S2,16/05/2023,16:20:03.500,0.9065,-0.0820,-0.3965,18.2419,-35.6216,-3.9444,47.1430,-56.4840,133.8395,,,,
05_S2,16/05/2023,16:20:03.600,0.8655,-0.0730,-0.5886,20.3629,-116.4474,-4.4632,46.1213,-57.2138,128.7311,,,,
05_S2,16/05/2023,16:20:03.700,0.6946,-0.0715,-0.7480,-10.3302,-108.5434,-21.6980,45.5375,-58.6733,119.9739,,,,
05_S2,16/05/2023,16:20:03.800,0.6265,-0.0603,-0.8125,1.3428,-89.5157,-11.4288,44.3699,-57.2138,113.2600,,,,
05_S2,16/05/2023,16:20:03.900,0.6287,-0.0771,-0.8650,12.2452,-54.9927,-16.3040,44.3699,-57.2138,113.2600,,,,
05_S2,16/05/2023,16:20:04.000,0.4294,-0.0696,-0.9207,12.9395,-67.8177,13.0463,44.2239,-55.3164,109.0273,Inactive,0,23.28,
05_S2,16/05/2023,16:20:04.100,0.2710,-0.0747,-0.9854,-6.3858,-94.8334,35.0723,45.6835,-51.2297,102.8973,,,,
05_S2,16/05/2023,16:20:04.200,0.1521,-0.0608,-0.9688,-0.4959,-88.0051,27.0844,47.4349,-46.5592,98.8106,,,,
05_S2,16/05/2023,16:20:04.300,0.0210,-0.0571,-0.9788,-13.2065,-61.1725,-0.8392,46.8511,-42.1806,94.7239,,,,
05_S2,16/05/2023,16:20:04.400,-0.0664,-0.0696,-1.0171,-3.6469,-44.4641,2.8458,46.4132,-39.4075,93.9941,,,,
05_S2,16/05/2023,16:20:04.500,-0.1663,-0.0789,-1.1226,11.3449,-40.4053,11.4822,46.4132,-39.4075,93.9941,,,,
05_S2,16/05/2023,16:20:04.600,-0.3730,-0.0403,-0.8831,-16.0065,-127.0370,2.9449,46.4132,-35.0289,91.0750,,,,
05_S2,16/05/2023,16:20:04.700,-0.4993,-0.1021,-0.9456,-0.8163,-78.4378,9.5215,46.9971,-28.6069,90.4912,,,,
05_S2,16/05/2023,16:20:04.800,-0.6057,0.0081,-0.7686,-12.4512,-123.3673,20.5078,45.6835,-19.7037,89.4696,,,,
05_S2,16/05/2023,16:20:04.900,-0.7461,0.0427,-0.5977,15.1901,-119.9112,13.2828,45.5375,-10.8006,92.8265,,,,
05_S2,16/05/2023,16:20:05.000,-0.8191,0.0671,-0.4373,7.4844,-84.2361,9.7046,45.5375,-10.8006,92.8265,Inactive,0,23.26,
05_S2,16/05/2023,16:20:05.100,-0.8677,0.0166,-0.4702,-2.3499,-31.1050,-2.9602,45.3916,-5.6922,95.0158,,,,
05_S2,16/05/2023,16:20:05.200,-0.8311,0.0427,-0.4055,2.4261,-60.1807,8.4763,46.1213,-4.0867,97.2051,,,,
05_S2,16/05/2023,16:20:05.300,-1.0491,0.1409,-0.2117,-12.1613,-84.4193,14.8087,44.0780,2.0434,102.1675,,,,
05_S2,16/05/2023,16:20:05.400,-0.9973,0.0505,0.2085,-34.2636,-126.0834,-25.2991,44.3699,5.5462,107.1299,,,,
05_S2,16/05/2023,16:20:05.500,-0.9119,-0.0771,0.2852,-6.8436,-89.1037,-33.3939,47.1430,9.4870,114.2817,,,,
05_S2,16/05/2023,16:20:05.600,-0.9336,-0.0491,0.2581,-9.1705,-55.6793,-2.1057,47.1430,9.4870,114.2817,,,,
05_S2,16/05/2023,16:20:05.700,-0.8948,-0.0403,0.3115,-23.8113,-61.3632,1.4648,45.9754,9.4870,116.3250,,,,
05_S2,16/05/2023,16:20:05.800,-0.8391,-0.0461,0.6191,-46.6461,-113.9450,0.0458,44.3699,9.9248,121.1415,,,,
05_S2,16/05/2023,16:20:05.900,-0.7393,-0.0562,0.6687,-2.1286,-81.9855,7.0724,44.6618,11.3844,129.0230,,,,
05_S2,16/05/2023,16:20:06.000,-0.6841,-0.0947,0.7344,-22.5830,-49.9191,-1.3885,44.9537,11.0925,132.8178,Inactive,0,23.26,
05_S2,16/05/2023,16:20:06.100,-0.6001,-0.0867,0.8296,9.4833,-75.0504,-12.3901,46.1213,9.0491,137.4883,,,,
05_S2,16/05/2023,16:20:06.200,-0.5203,-0.1172,0.6865,5.8594,-88.1195,3.7155,46.1213,9.0491,137.4883,,,,
05_S2,16/05/2023,16:20:06.300,-0.1460,-0.0752,0.9998,7.1716,-191.5817,9.2621,45.3916,3.9407,146.0996,,,,
05_S2,16/05/2023,16:20:06.400,0.1899,-0.1042,1.1248,-14.6408,-172.8973,-2.8687,45.0997,-5.6922,156.6082,,,,
05_S2,16/05/2023,16:20:06.500,0.2795,-0.0901,0.9636,-4.1428,-79.1931,-18.6539,46.7052,-9.0491,159.0894,,,,
05_S2,16/05/2023,16:20:06.600,0.4529,-0.0271,0.8848,22.2092,-86.0443,-22.0032,45.0997,-16.4928,160.4030,,,,
05_S2,16/05/2023,16:20:06.700,0.5806,-0.0369,0.8936,4.2648,-75.0427,-21.5378,45.0997,-16.4928,160.4030,,,,
05_S2,16/05/2023,16:20:06.800,0.6545,-0.0051,0.8088,-2.4872,-55.0613,-29.4342,45.3916,-22.9147,161.2787,,,,
05_S2,16/05/2023,16:20:06.900,0.6846,0.0273,0.7576,4.2496,-57.8613,-30.9067,45.8294,-28.0231,161.4247,,,,
05_S2,16/05/2023,16:20:07.000,0.7334,0.0715,0.6033,12.9547,-57.0908,-20.1874,44.3699,-31.2341,160.8409,Inactive,0,23.26,
05_S2,16/05/2023,16:20:07.100,0.8511,0.0603,0.5767,5.0507,-80.9555,12.1918,44.5158,-38.3858,158.9435,,,,
05_S2,16/05/2023,16:20:07.200,0.8909,0.0515,0.4734,-0.9537,-57.1289,7.3166,45.0997,-40.7211,157.1920,,,,
05_S2,16/05/2023,16:20:07.300,0.9634,0.0593,0.2788,14.2746,-104.9957,2.7466,45.0997,-40.7211,157.1920,,,,
05_S2,16/05/2023,16:20:07.400,1.0195,-0.0344,0.0098,16.2125,-155.5634,49.3393,43.7861,-48.1647,151.7917,,,,
05_S2,16/05/2023,16:20:07.500,0.9971,-0.1106,-0.1416,16.3803,-102.9205,24.1165,45.8294,-54.5866,143.9102,,,,
05_S2,16/05/2023,16:20:07.600,0.9551,-0.0986,-0.2080,15.7394,-57.7698,8.6594,46.7052,-54.8786,140.4074,,,,
05_S2,16/05/2023,16:20:07.700,0.9792,-0.0559,-0.3113,-7.6752,-45.2957,-18.1885,45.9754,-57.3598,135.5909,,,,
05_S2,16/05/2023,16:20:07.800,0.9558,-0.0601,-0.3911,5.4626,-41.6412,-10.2539,45.3916,-58.8193,132.3799,,,,
05_S2,16/05/2023,16:20:07.900,0.9009,-0.0823,-0.4790,18.2419,-63.4384,0.3891,45.3916,-58.8193,132.3799,,,,
05_S2,16/05/2023,16:20:08.000,0.8069,-0.1155,-0.6680,0.0534,-88.3408,1.4343,46.4132,-58.0895,128.4392,Inactive,0,23.28,
05_S2,16/05/2023,16:20:08.100,0.6599,-0.1379,-0.7344,45.1126,-106.3614,10.2234,45.3916,-58.5274,120.1198,,,,
05_S2,16/05/2023,16:20:08.200,0.5630,-0.1406,-0.8047,6.2790,-94.9554,24.8642,46.7052,-56.3381,112.9681,,,,
05_S2,16/05/2023,16:20:08.300,0.3425,-0.1458,-0.9019,-47.4472,-128.0212,60.4553,50.3540,-49.4783,103.1892,,,,
05_S2,16/05/2023,16:20:08.400,0.2185,-0.0920,-0.9583,-29.9301,-93.5287,26.1917,50.3540,-49.4783,103.1892,,,,
05_S2,16/05/2023,16:20:08.500,0.0757,-0.0811,-0.9917,-5.2261,-54.0009,-8.4610,49.3323,-45.5375,99.8323,,,,
05_S2,16/05/2023,16:20:08.600,-0.0081,-0.0820,-1.0161,-3.3569,-39.7491,-4.6082,48.1647,-42.3265,97.2051,,,,
05_S2,16/05/2023,16:20:08.700,-0.0793,-0.0679,-0.9971,-8.5983,-58.9066,5.5771,49.4783,-39.5534,95.3077,,,,
05_S2,16/05/2023,16:20:08.800,-0.2827,-0.0686,-1.0186,-22.3618,-84.0607,5.3253,46.4132,-35.6127,92.2427,,,,
05_S2,16/05/2023,16:20:08.900,-0.3889,0.0151,-0.9456,-27.1683,-123.9166,28.7628,46.5592,-24.9581,89.1776,,,,
05_S2,16/05/2023,16:20:09.000,-0.6033,0.1077,-0.7507,-26.2527,-150.8102,10.7803,46.5592,-24.9581,89.1776,Inactive,0,23.27,
05_S2,16/05/2023,16:20:09.100,-0.8137,0.1304,-0.6150,8.5602,-123.4512,-14.8315,44.6618,-15.4711,90.7831,,,,
05_S2,16/05/2023,16:20:09.200,-0.8616,0.0149,-0.3831,14.1754,-134.0485,-27.8625,45.9754,-5.4003,93.8482,,,,
05_S2,16/05/2023,16:20:09.300,-0.9526,-0.0078,-0.2827,5.0201,-67.7261,-7.9117,46.2673,-1.3136,98.8106,,,,
05_S2,16/05/2023,16:20:09.400,-0.9470,-0.0349,-0.1785,1.6708,-56.0226,-8.0261,47.1430,1.0217,102.0216,,,,
05_S2,16/05/2023,16:20:09.500,-0.9573,-0.0486,-0.0940,-8.7280,-57.3196,-11.6806,47.1430,3.0650,103.7730,,,,
05_S2,16/05/2023,16:20:09.600,-0.9597,-0.0740,0.0349,-6.3477,-74.3561,-15.8005,47.1430,3.0650,103.7730,,,,
05_S2,16/05/2023,16:20:09.700,-0.9534,-0.0940,0.1257,-1.6861,-63.8123,-12.9318,47.5809,7.2977,110.3409,,,,
05_S2,16/05/2023,16:20:09.800,-0.9287,-0.1094,0.2654,-2.3727,-68.0618,-7.0877,47.4349,7.7355,112.8221,,,,
05_S2,16/05/2023,16:20:09.900,-0.9143,-0.0854,0.4019,-4.8828,-69.8013,0.6943,48.4566,8.7572,118.8062,,,,
05_S2,16/05/2023,16:20:10.000,-0.8845,-0.0862,0.4353,-13.2523,-50.7126,6.0501,47.1430,10.6546,122.1632,Inactive,0,23.27,
05_S2,16/05/2023,16:20:10.100,-0.8040,-0.0730,0.5283,-13.0234,-67.6575,22.6135,47.1430,10.6546,122.1632,,,,
05_S2,16/05/2023,16:20:10.200,-0.7139,-0.0242,0.6511,-8.9951,-101.2573,25.8484,45.0997,10.6546,126.8337,,,,
05_S2,16/05/2023,16:20:10.300,-0.5935,-0.0212,0.7996,1.4496,-90.0116,2.5711,43.3482,9.7789,134.4233,,,,
05_S2,16/05/2023,16:20:10.400,-0.4924,-0.0024,0.7908,10.0403,-85.4568,6.6147,43.9320,8.3194,138.8019,,,,
05_S2,16/05/2023,16:20:10.500,-0.2495,0.0151,1.0029,5.9509,-142.7460,0.0076,42.6185,3.2110,148.8727,,,,
05_S2,16/05/2023,16:20:10.600,-0.1399,0.0134,0.9648,10.9406,-77.7893,-3.1509,43.2023,-0.5838,152.9594,,,,
05_S2,16/05/2023,16:20:10.700,0.0713,0.0723,0.9893,28.6026,-105.5069,-8.5297,43.2023,-0.5838,152.9594,,,,
05_S2,16/05/2023,16:20:10.800,0.1777,0.0996,0.9900,18.6539,-73.6237,-12.1002,41.4508,-7.2977,157.0461,,,,
05_S2,16/05/2023,16:20:10.900,0.2559,0.1011,0.9548,4.5776,-59.1431,-1.0452,40.7211,-11.2384,158.9435,,,,
05_S2,16/05/2023,16:20:11.000,0.4390,0.1143,0.9526,-0.7248,-70.7169,-3.2120,41.3049,-16.2008,162.7383,Inactive,0,23.24,
05_S2,16/05/2023,16:20:11.100,0.5120,0.0898,0.8611,-21.3776,-58.6090,-20.1416,43.4942,-19.5578,161.7166,,,,
05_S2,16/05/2023,16:20:11.200,0.6013,0.0671,0.8303,-13.7787,-78.4988,-26.4359,44.0780,-26.5636,162.5923,,,,
05_S2,16/05/2023,16:20:11.300,0.6785,0.0911,0.7405,-0.6790,-77.2324,-17.4484,44.0780,-26.5636,162.5923,,,,
05_S2,16/05/2023,16:20:11.400,0.8140,0.1021,0.6404,0.7248,-84.7549,-11.6653,43.6401,-32.5477,160.1111,,,,
05_S2,16/05/2023,16:20:11.500,0.8594,0.1045,0.5288,20.3247,-66.5665,3.2501,43.9320,-36.3424,158.9435,,,,
05_S2,16/05/2023,16:20:11.600,0.9338,0.0439,0.3982,14.6255,-72.6318,51.9714,44.3699,-42.9104,156.7542,,,,
05_S2,16/05/2023,16:20:11.700,0.9502,0.0269,0.3267,9.9640,-53.1845,26.7563,44.2239,-45.6835,154.2730,,,,
05_S2,16/05/2023,16:20:11.800,0.9336,0.0291,0.2651,8.7738,-36.4914,-2.5253,44.2239,-45.6835,154.2730,,,,
05_S2,16/05/2023,16:20:11.900,1.0303,0.0386,0.1592,10.8261,-62.6068,0.5035,43.3482,-47.1430,153.1053,,,,
05_S2,16/05/2023,16:20:12.000,1.0186,0.0142,0.0547,19.3405,-75.1801,3.1967,43.7861,-50.2080,148.8727,Inactive,0,23.27,
05_S2,16/05/2023,16:20:12.100,1.0518,0.0623,0.0061,0.0076,-55.7098,-1.1749,42.3265,-55.1705,145.3698,,,,
05_S2,16/05/2023,16:20:12.200,1.0310,0.0198,-0.1157,-0.0305,-29.8386,2.6093,44.3699,-54.5866,143.0345,,,,
05_S2,16/05/2023,16:20:12.300,0.9956,-0.0120,-0.1838,-14.0457,-46.3791,8.8348,44.2239,-55.3164,139.6776,,,,
05_S2,16/05/2023,16:20:12.400,0.9932,-0.0369,-0.2686,-2.7618,-37.7274,7.5302,44.2239,-55.3164,139.6776,,,,
05_S2,16/05/2023,16:20:12.500,0.9519,-0.0415,-0.2874,11.0626,-24.8108,14.5264,44.3699,-57.7976,137.4883,,,,
05_S2,16/05/2023,16:20:12.600,0.9319,-0.0691,-0.3687,-12.1918,-40.5731,-8.2932,44.3699,-57.5057,134.5692,,,,
05_S2,16/05/2023,16:20:12.700,0.9377,0.0081,-0.4294,38.0402,-53.1235,-18.3258,43.9320,-58.2355,132.3799,,,,
05_S2,16/05/2023,16:20:12.800,0.8691,-0.0017,-0.5142,10.9482,-48.3704,-18.9056,43.9320,-58.8193,128.5851,,,,
05_S2,16/05/2023,16:20:12.900,0.8337,-0.0022,-0.5930,11.8332,-56.8390,-8.2245,42.4725,-57.9436,123.9146,,,,
05_S2,16/05/2023,16:20:13.000,0.7512,-0.0129,-0.6860,12.9013,-60.3943,2.0447,42.4725,-57.9436,123.9146,Inactive,0,23.25,
05_S2,16/05/2023,16:20:13.100,0.6843,-0.0303,-0.7705,12.6114,-62.5381,5.3864,43.6401,-58.8193,118.0765,,,,
05_S2,16/05/2023,16:20:13.200,0.6108,-0.0361,-0.8147,-11.6348,-48.3856,11.9629,43.0563,-57.0679,115.4493,,,,
05_S2,16/05/2023,16:20:13.300,0.5591,-0.0278,-0.8586,-11.2991,-44.2429,11.1771,42.7644,-55.3164,110.7788,,,,
05_S2,16/05/2023,16:20:13.400,0.4673,-0.0283,-0.8999,-2.6703,-55.6870,-1.8311,43.9320,-53.5650,108.1516,,,,
05_S2,16/05/2023,16:20:13.500,0.3674,-0.0205,-0.9160,3.3340,-61.9354,-2.8534,43.9320,-53.5650,108.1516,,,,
05_S2,16/05/2023,16:20:13.600,0.2861,-0.0454,-0.9851,21.0876,-58.0444,-0.5569,44.3699,-50.7919,103.3351,,,,
05_S2,16/05/2023,16:20:13.700,0.1294,-0.0693,-1.0173,-0.4272,-74.6918,-6.9656,44.0780,-48.1647,98.9565,,,,
05_S2,16/05/2023,16:20:13.800,0.0374,-0.0381,-1.0081,-10.5896,-60.2264,-0.4730,42.6185,-44.3699,96.9132,,,,
05_S2,16/05/2023,16:20:13.900,-0.0491,-0.0073,-1.0271,-16.7313,-49.9344,5.0583,41.8887,-41.8887,94.7239,,,,
05_S2,16/05/2023,16:20:14.000,-0.1650,0.0251,-0.9946,-23.3688,-70.9839,-3.5858,40.7211,-37.2182,90.6372,Inactive,0,23.27,
05_S2,16/05/2023,16:20:14.100,-0.2542,0.0596,-0.9514,-12.0544,-65.4907,-2.4643,40.7211,-37.2182,90.6372,,,,
05_S2,16/05/2023,16:20:14.200,-0.3486,0.0701,-0.9365,-2.2583,-66.0782,-0.0229,39.9913,-32.6936,89.0317,,,,
05_S2,16/05/2023,16:20:14.300,-0.5244,0.0544,-0.8716,3.1815,-83.7555,-0.5417,39.8453,-26.7095,88.5938,,,,
05_S2,16/05/2023,16:20:14.400,-0.6335,0.0669,-0.7896,6.2408,-83.7021,9.2239,40.2832,-19.5578,88.1560,,,,
05_S2,16/05/2023,16:20:14.500,-0.7207,0.0593,-0.6628,9.5367,-79.7653,6.7825,40.4291,-14.7413,90.3453,,,,
05_S2,16/05/2023,16:20:14.600,-0.7773,0.0701,-0.6611,16.9220,-42.7094,-6.5689,40.4291,-14.7413,90.3453,,,,
05_S2,16/05/2023,16:20:14.700,-0.8198,0.0173,-0.5576,-3.3951,-65.3610,-2.8229,40.4291,-14.7413,90.3453,,,,
05_S2,16/05/2023,16:20:14.800,-0.8628,0.0181,-0.4683,12.5275,-43.6020,-2.1515,40.7211,-8.6113,93.5563,,,,
05_S2,16/05/2023,16:20:14.900,-0.9163,0.0222,-0.3496,24.5667,-76.5076,3.6697,42.6185,-3.5029,95.7456,,,,
05_S2,16/05/2023,16:20:15.000,-0.9727,0.0222,-0.2251,18.8904,-82.1533,-4.2648,45.2456,0.8757,99.8323,Inactive,0,23.27,
05_S2,16/05/2023,16:20:15.100,-1.0154,-0.0271,-0.0608,3.5400,-79.9255,-15.2817,44.5158,5.1084,104.0649,,,,
05_S2,16/05/2023,16:20:15.200,-0.9626,-0.0742,0.0869,3.9597,-71.1975,-18.6996,44.5158,5.1084,104.0649,,,,
05_S2,16/05/2023,16:20:15.300,-0.9573,-0.0925,0.1372,-1.9684,-49.8123,-19.1650,46.1213,7.2977,108.2976,,,,
05_S2,16/05/2023,16:20:15.400,-0.9292,-0.1389,0.1973,-6.0425,-42.9993,-22.4380,47.8728,8.7572,112.9681,,,,
05_S2,16/05/2023,16:20:15.500,-0.9058,-0.1587,0.2898,-5.4016,-44.5786,-3.6774,48.1647,9.9248,115.3033,,,,
05_S2,16/05/2023,16:20:15.600,-0.9509,-0.0979,0.3804,-6.1951,-28.4729,8.0414,47.2890,9.0491,116.4710,,,,
05_S2,16/05/2023,16:20:15.700,-0.9097,-0.1155,0.3833,-10.8490,-37.3917,5.6458,47.4349,11.2384,120.4117,,,,
05_S2,16/05/2023,16:20:15.800,-0.8777,-0.1392,0.4578,-3.4103,-45.9747,10.8643,47.4349,11.2384,120.4117,,,,
05_S2,16/05/2023,16:20:15.900,-0.7944,-0.0764,0.5752,20.7901,-96.5576,11.9858,45.8294,12.5520,124.0606,,,,
05_S2,16/05/2023,16:20:16.000,-0.6699,-0.0881,0.7568,-14.5340,-113.7772,-3.4027,45.5375,10.8006,133.1097,Inactive,0,23.27,
05_S2,16/05/2023,16:20:16.100,-0.5354,-0.1011,0.8223,-11.1389,-75.5768,-7.5226,46.5592,8.6113,137.6342,,,,
05_S2,16/05/2023,16:20:16.200,-0.4526,-0.1206,0.8599,0.5341,-66.5054,-8.3084,47.5809,6.4220,142.1588,,,,
05_S2,16/05/2023,16:20:16.300,-0.3083,-0.0935,0.8950,17.6086,-101.9669,-22.0947,47.5809,6.4220,142.1588,,,,
05_S2,16/05/2023,16:20:16.400,-0.1343,-0.0769,0.9763,12.8784,-80.9326,-13.5651,47.5809,0.8757,150.0403,,,,
05_S2,16/05/2023,16:20:16.500,-0.0642,-0.0608,0.9587,9.7046,-55.0919,-7.3013,47.2890,-0.5838,152.9594,,,,
05_S2,16/05/2023,16:20:16.600,0.1106,-0.0334,1.0125,8.8806,-84.1827,-13.6185,47.8728,-5.2543,155.0027,,,,
05_S2,16/05/2023,16:20:16.700,0.2329,-0.0486,0.9722,4.9591,-81.6422,-13.5040,47.7268,-10.9465,159.2354,,,,
05_S2,16/05/2023,16:20:16.800,0.3965,-0.0317,0.9402,9.2850,-76.2558,-9.3689,47.1430,-17.3685,160.6949,,,,
05_S2,16/05/2023,16:20:16.900,0.4937,-0.0327,0.9053,3.9520,-67.0929,-8.4610,47.1430,-17.3685,160.6949,,,,
05_S2,16/05/2023,16:20:17.000,0.5872,-0.0093,0.8628,11.8332,-61.1954,-8.6670,47.7268,-21.1633,161.5706,Inactive,0,23.27,
05_S2,16/05/2023,16:20:17.100,0.6855,0.0188,0.7852,8.6288,-85.9680,-2.1362,46.5592,-25.5419,161.5706,,,,
05_S2,16/05/2023,16:20:17.200,0.7756,0.0325,0.6899,21.7361,-75.9201,0.4578,45.2456,-32.1098,160.8409,,,,
05_S2,16/05/2023,16:20:17.300,0.8242,0.0557,0.5562,26.2833,-61.6455,2.1973,43.2023,-36.4884,160.2571,,,,
05_S2,16/05/2023,16:20:17.400,0.9299,0.0518,0.4617,3.4790,-82.5272,4.6692,44.3699,-40.5751,156.4623,,,,
05_S2,16/05/2023,16:20:17.500,0.9377,0.0435,0.3689,-10.5057,-71.3501,11.5738,44.3699,-40.5751,156.4623,,,,
05_S2,16/05/2023,16:20:17.600,0.9856,0.0337,0.2029,-5.1880,-62.3779,4.5853,45.3916,-46.2673,153.3972,,,,
05_S2,16/05/2023,16:20:17.700,1.0173,-0.0059,0.0645,-16.6702,-93.0939,-2.7161,45.8294,-50.4999,150.0403,,,,
05_S2,16/05/2023,16:20:17.800,0.9812,-0.0071,-0.0728,-9.3231,-97.7402,-1.4343,46.7052,-53.4190,143.9102,,,,
05_S2,16/05/2023,16:20:17.900,0.9834,0.0024,-0.1750,7.7438,-77.7664,-6.8817,45.9754,-55.9002,138.8019,,,,
05_S2,16/05/2023,16:20:18.000,0.9797,0.0457,-0.2585,11.0626,-40.1154,-2.5711,45.9754,-55.9002,138.8019,Inactive,0,23.27,
05_S2,16/05/2023,16:20:18.100,0.9626,0.0359,-0.4028,6.0196,-46.2875,-9.6741,45.0997,-58.2355,136.1747,,,,
05_S2,16/05/2023,16:20:18.200,0.8992,0.0637,-0.5542,-6.9733,-73.3643,-24.2920,45.3916,-59.1112,130.9204,,,,
05_S2,16/05/2023,16:20:18.300,0.8442,0.1340,-0.5449,34.7900,-70.6711,-84.2133,41.4508,-59.5491,124.9363,,,,
05_S2,16/05/2023,16:20:18.400,0.7805,0.1650,-0.6633,27.8702,-26.6342,-47.2565,35.9046,-59.2572,121.7253,,,,
05_S2,16/05/2023,16:20:18.500,0.7136,0.1270,-0.7385,48.1415,-44.0826,3.3417,35.6127,-59.8410,119.0981,,,,
05_S2,16/05/2023,16:20:18.600,0.6584,0.0420,-0.8010,48.4848,-70.4651,22.9721,35.6127,-59.8410,119.0981,,,,
05_S2,16/05/2023,16:20:18.700,0.5344,0.0115,-0.8506,10.9329,-77.6978,23.5443,40.2832,-57.5057,113.5519,,,,
05_S2,16/05/2023,16:20:18.800,0.4292,-0.0051,-0.9062,5.1422,-59.6008,20.6070,40.7211,-55.9002,107.8597,,,,
05_S2,16/05/2023,16:20:18.900,0.3379,-0.0259,-0.9172,7.0496,-76.4618,22.9950,41.1589,-51.9595,103.3351,,,,
05_S2,16/05/2023,16:20:19.000,0.2109,-0.0444,-1.0022,-3.3264,-67.4896,21.9193,42.7644,-48.8945,99.3944,Inactive,0,23.28,
05_S2,16/05/2023,16:20:19.100,0.0820,-0.0327,-1.0679,-16.5939,-73.8144,31.4255,43.3482,-43.6401,94.7239,,,,
05_S2,16/05/2023,16:20:19.200,-0.1016,0.0510,-0.9475,-23.5214,-125.8621,45.2423,43.3482,-43.6401,94.7239,,,,
05_S2,16/05/2023,16:20:19.300,-0.2771,0.0505,-0.9631,-4.7302,-85.4034,25.3754,43.2023,-34.4450,91.3670,,,,
05_S2,16/05/2023,16:20:19.400,-0.4004,0.0776,-0.9392,-8.1787,-70.1523,21.3699,44.2239,-28.7529,89.1776,,,,
05_S2,16/05/2023,16:20:19.500,-0.5110,0.0928,-0.8491,-8.6365,-81.6650,14.1602,41.8887,-23.4985,88.8857,,,,
05_S2,16/05/2023,16:20:19.600,-0.6311,0.1228,-0.7217,-10.5133,-100.8682,2.1286,41.5968,-16.2008,89.4696,,,,
05_S2,16/05/2023,16:20:19.700,-0.7556,0.1284,-0.5967,-8.8425,-90.5838,-2.6703,41.5968,-16.2008,89.4696,,,,
05_S2,16/05/2023,16:20:19.800,-0.8262,0.1355,-0.5505,-1.6098,-57.1976,-5.8746,41.0130,-10.6546,92.6805,,,,
05_S2,16/05/2023,16:20:19.900,-0.8748,0.1138,-0.4414,-4.3793,-70.6863,-7.8506,40.8670,-6.1301,92.8265,,,,
05_S2,16/05/2023,16:20:20.000,-0.9250,0.1301,-0.3115,4.0359,-77.4689,2.4261,41.8887,-1.8974,97.0591,Inactive,0,23.24,
05_S2,16/05/2023,16:20:20.100,-0.9622,0.1282,-0.1909,2.3270,-72.6547,0.5951,41.1589,2.3353,100.1242,,,,
05_S2,16/05/2023,16:20:20.200,-0.9680,0.1428,-0.0061,3.6621,-95.5658,3.8147,41.4508,5.5462,106.2542,,,,
05_S2,16/05/2023,16:20:20.300,-0.9639,0.1384,0.1016,-2.1439,-64.3158,0.3052,41.4508,5.5462,106.2542,,,,
05_S2,16/05/2023,16:20:20.400,-0.9712,0.1318,0.1597,-3.1662,-37.2772,-2.8305,41.5968,7.1517,109.6112,,,,
05_S2,16/05/2023,16:20:20.500,-0.9607,0.1379,0.2444,-3.4256,-36.0031,-1.4648,41.5968,9.4870,113.1140,,,,
05_S2,16/05/2023,16:20:20.600,-0.9480,0.1284,0.2876,-8.0032,-29.3884,-7.3929,41.8887,9.7789,115.4493,,,,
05_S2,16/05/2023,16:20:20.700,-0.9282,0.1167,0.3535,-1.2360,-44.8837,-13.6185,42.0346,10.8006,117.6386,,,,
05_S2,16/05/2023,16:20:20.800,-0.8992,0.0820,0.4182,-10.5896,-45.3720,-8.8654,42.1806,11.5303,121.8713,,,,
05_S2,16/05/2023,16:20:20.900,-0.8618,0.0281,0.4548,-14.8544,-35.5377,-8.1253,42.1806,11.5303,121.8713,,,,
05_S2,16/05/2023,16:20:21.000,-0.8467,0.0461,0.5298,-4.0054,-33.5846,-3.5706,42.9104,11.6763,123.1848,Inactive,0,23.28,
05_S2,16/05/2023,16:20:21.100,-0.8079,0.0293,0.5837,7.7438,-25.2304,-8.9188,43.0563,10.6546,124.7903,,,,
05_S2,16/05/2023,16:20:21.200,-0.7876,0.0435,0.6077,16.9067,-24.6811,-2.2964,44.2239,12.1141,128.0013,,,,
05_S2,16/05/2023,16:20:21.300,-0.7639,0.0627,0.6321,5.5695,-38.0249,-6.7215,44.9537,9.9248,130.1906,,,,
05_S2,16/05/2023,16:20:21.400,-0.6814,0.0476,0.7632,8.9111,-59.7153,-7.8201,44.9537,9.9248,130.1906,,,,
05_S2,16/05/2023,16:20:21.500,-0.5981,0.0164,0.7747,-18.8751,-58.1055,-14.8392,45.3916,10.3627,135.0071,,,,
05_S2,16/05/2023,16:20:21.600,-0.5181,-0.0544,0.8774,-12.2070,-60.2112,-24.9481,46.9971,8.4653,139.5316,,,,
05_S2,16/05/2023,16:20:21.700,-0.4695,-0.0330,0.8608,11.4746,-44.3268,-10.5896,48.0187,7.7355,142.8886,,,,
05_S2,16/05/2023,16:20:21.800,-0.3047,-0.0981,1.0701,-26.3824,-78.5904,-10.1013,49.6242,4.0867,145.0779,,,,
05_S2,16/05/2023,16:20:21.900,-0.2495,-0.0723,0.9653,6.3553,-31.8146,-2.4567,48.6025,1.8974,147.2672,,,,
05_S2,16/05/2023,16:20:22.000,-0.2622,-0.0427,0.9890,30.1132,-20.9045,-11.7569,48.6025,1.8974,147.2672,Inactive,0,23.25,
05_S2,16/05/2023,16:20:22.100,-0.2021,0.0068,0.9658,24.4751,-24.5514,-11.3831,49.6242,1.4595,149.7484,,,,
05_S2,16/05/2023,16:20:22.200,-0.1584,-0.0444,0.9880,1.9989,-34.1644,-25.4822,49.1864,-0.4379,152.2296,,,,
05_S2,16/05/2023,16:20:22.300,-0.1023,-0.0046,1.0173,-3.7613,-10.7422,-17.9672,49.1864,-1.6055,152.8134,,,,
05_S2,16/05/2023,16:20:22.400,-0.1260,-0.0215,1.0352,0.9613,-7.8964,-42.2974,51.5216,-3.9407,152.2296,,,,
05_S2,16/05/2023,16:20:22.500,-0.1155,-0.0278,0.9934,-1.7319,-1.1139,-14.6027,52.5433,-3.2110,151.4998,,,,
05_S2,16/05/2023,16:20:22.600,-0.0825,-0.0105,1.0122,6.7444,-9.2545,1.9073,52.5433,-3.2110,151.4998,,,,
05_S2,16/05/2023,16:20:22.700,-0.0803,0.0134,1.0161,19.2566,-11.1465,5.4855,51.8135,-3.9407,153.6891,,,,
05_S2,16/05/2023,16:20:22.800,-0.0725,0.0283,1.0027,7.2250,-0.8087,1.8005,50.6459,-5.6922,152.8134,,,,
05_S2,16/05/2023,16:20:22.900,-0.0757,0.0234,0.9858,-2.8610,5.0049,1.3428,49.7702,-3.3569,154.2730,,,,
05_S2,16/05/2023,16:20:23.000,-0.0796,-0.0027,1.0239,-11.2686,-3.4409,-3.2883,51.9595,-3.5029,152.9594,Inactive,0,23.27,
05_S2,16/05/2023,16:20:23.100,-0.0750,-0.0225,1.0027,-11.5738,-1.7471,-5.5313,51.9595,-3.5029,152.9594,,,,
05_S2,16/05/2023,16:20:23.200,-0.1045,-0.0503,1.0095,-3.7766,-0.3510,-9.7351,52.8352,-4.6705,152.6675,,,,
05_S2,16/05/2023,16:20:23.300,-0.0752,-0.0757,1.0061,-13.5498,-1.9836,-13.3286,52.3973,-5.4003,152.5215,,,,
05_S2,16/05/2023,16:20:23.400,-0.0513,-0.0906,1.0146,-13.0234,-0.1602,-17.7460,54.4407,-5.1084,151.9377,,,,
05_S2,16/05/2023,16:20:23.500,-0.0715,-0.1138,0.9849,-9.9564,0.5798,-5.4169,56.4840,-4.5246,151.3539,,,,
05_S2,16/05/2023,16:20:23.600,-0.0723,-0.1133,0.9973,1.5411,2.9373,-5.3787,55.7543,-5.2543,150.9160,,,,
05_S2,16/05/2023,16:20:23.700,-0.1052,-0.0779,1.0000,0.5951,4.5395,-22.9034,55.7543,-5.2543,150.9160,,,,
05_S2,16/05/2023,16:20:23.800,-0.0833,-0.1079,0.9978,10.0632,8.6517,-71.3425,56.6300,-6.4220,151.4998,,,,
05_S2,16/05/2023,16:20:23.900,-0.0425,-0.1279,0.9971,2.5177,1.2970,-82.4356,59.5491,-9.9248,152.3756,,,,
05_S2,16/05/2023,16:20:24.000,-0.0337,-0.1484,0.9958,-3.5019,-3.0594,-53.5660,60.7167,-10.8006,150.3322,Inactive,0,23.27,
05_S2,16/05/2023,16:20:24.100,-0.0525,-0.1199,1.0171,-5.0659,-1.9608,-31.6772,62.3222,-15.0332,150.4782,,,,
05_S2,16/05/2023,16:20:24.200,-0.0288,-0.1724,0.9614,1.5945,10.9863,-80.1926,63.6358,-18.0982,151.2079,,,,
05_S2,16/05/2023,16:20:24.300,0.0081,-0.1721,0.9915,-2.1896,-7.9346,-75.5920,63.6358,-18.0982,151.2079,,,,
05_S2,16/05/2023,16:20:24.400,0.0239,-0.1641,1.0049,-2.3880,-4.1428,-40.5350,63.4898,-22.3309,150.7701,,,,
05_S2,16/05/2023,16:20:24.500,0.0271,-0.1777,0.9956,-2.4872,1.2894,-32.3181,64.9494,-24.9581,150.4782,,,,
05_S2,16/05/2023,16:20:24.600,0.0322,-0.1870,0.9824,-3.2120,0.0305,-35.9802,63.9277,-25.6878,152.0837,,,,
05_S2,16/05/2023,16:20:24.700,0.0601,-0.1904,0.9902,-2.3651,-3.7766,-42.1982,65.6791,-28.3150,151.2079,,,,
05_S2,16/05/2023,16:20:24.800,0.0779,-0.1824,0.9866,-0.2899,-3.2196,-40.3061,65.6791,-28.3150,151.2079,,,,
05_S2,16/05/2023,16:20:24.900,0.0979,-0.1802,0.9880,-1.9760,-3.8300,-42.2668,63.1979,-29.6286,151.3539,,,,
05_S2,16/05/2023,16:20:25.000,0.1155,-0.1614,0.9836,-2.0370,-0.8392,-47.7829,64.2196,-33.2774,150.3322,Inactive,0,23.25,
05_S2,16/05/2023,16:20:25.100,0.1433,-0.1680,0.9790,-3.3493,3.0975,-74.9130,62.0303,-36.0505,150.1863,,,,
05_S2,16/05/2023,16:20:25.200,0.1426,-0.1653,1.0022,-0.1755,-2.3499,-64.8346,60.2788,-39.8453,149.6024,,,,
05_S2,16/05/2023,16:20:25.300,0.1787,-0.1765,0.9712,-0.0916,-4.6158,-54.0314,58.8193,-42.1806,151.0620,,,,
05_S2,16/05/2023,16:20:25.400,0.1843,-0.1445,0.9866,-0.5264,-0.2289,-33.5693,58.8193,-42.1806,151.0620,,,,
05_S2,16/05/2023,16:20:25.500,0.2083,-0.1199,0.9824,-0.7019,1.7395,-58.8303,57.0679,-43.3482,150.7701,,,,
05_S2,16/05/2023,16:20:25.600,0.2158,-0.1077,0.9814,1.8997,-2.8915,-53.4286,54.1488,-46.2673,150.7701,,,,
05_S2,16/05/2023,16:20:25.700,0.2312,-0.1042,0.9709,2.3041,1.7700,-64.5752,51.6676,-48.1647,149.7484,,,,
05_S2,16/05/2023,16:20:25.800,0.2251,-0.0410,0.9844,-4.2648,4.0283,-66.4673,47.4349,-48.0187,149.8943,,,,
05_S2,16/05/2023,16:20:25.900,0.2368,-0.0532,0.9958,2.2354,-0.8392,-108.1238,47.4349,-48.0187,149.8943,,,,
05_S2,16/05/2023,16:20:26.000,0.2334,-0.0234,0.9915,-2.2659,0.9232,-53.5507,47.4349,-48.0187,149.8943,Inactive,0,23.27,
05_S2,16/05/2023,16:20:26.100,0.2400,0.0020,0.9661,-12.7258,2.2202,-18.0664,40.5751,-50.4999,150.0403,,,,
05_S2,16/05/2023,16:20:26.200,0.2300,-0.0479,0.9846,-21.3013,0.9842,-28.5950,39.9913,-50.7919,150.6241,,,,
05_S2,16/05/2023,16:20:26.300,0.2112,-0.1001,0.9844,-21.7743,16.6397,-13.0920,40.5751,-49.9161,150.9160,,,,
05_S2,16/05/2023,16:20:26.400,0.2153,-0.0933,0.9949,-5.9738,2.5558,-10.1089,39.1156,-49.9161,152.9594,,,,
05_S2,16/05/2023,16:20:26.500,0.2134,-0.0908,0.9731,-4.5242,-6.4545,-26.8021,39.1156,-49.9161,152.9594,,,,
05_S2,16/05/2023,16:20:26.600,0.2554,-0.0732,0.9780,2.7847,-11.9400,-49.1333,38.9696,-50.9378,150.4782,,,,
05_S2,16/05/2023,16:20:26.700,0.2654,-0.0742,0.9861,-7.1640,-2.0142,-126.9608,34.5910,-52.1054,149.8943,,,,
05_S2,16/05/2023,16:20:26.800,0.2705,-0.0530,0.9797,-11.2076,9.9792,-68.3060,27.5852,-48.8945,150.7701,,,,
05_S2,16/05/2023,16:20:26.900,0.2393,-0.0056,0.9736,7.5684,9.6817,-16.7999,28.0231,-48.1647,151.4998,,,,
05_S2,16/05/2023,16:20:27.000,0.1975,0.0408,0.9749,0.0763,11.5738,-50.4684,24.2283,-46.4132,151.7917,Inactive,0,23.28,
05_S2,16/05/2023,16:20:27.100,0.2090,0.0027,1.0002,-4.2419,9.7733,-94.1544,24.2283,-46.4132,151.7917,,,,
05_S2,16/05/2023,16:20:27.200,0.1941,0.0000,0.9861,-10.9940,9.2468,-51.8494,21.1633,-42.7644,152.8134,,,,
05_S2,16/05/2023,16:20:27.300,0.1599,0.0271,1.0032,-2.0370,7.9041,-9.6359,20.8714,-41.5968,152.8134,,,,
05_S2,16/05/2023,16:20:27.400,0.1155,0.0806,1.0105,4.0131,5.9967,-33.1268,20.7254,-40.8670,151.4998,,,,
05_S2,16/05/2023,16:20:27.500,0.1519,0.0349,1.0164,0.9842,6.2561,-141.2125,14.5954,-35.6127,151.7917,,,,
05_S2,16/05/2023,16:20:27.600,0.1238,0.0671,1.0002,2.8763,5.8823,-71.9528,14.5954,-35.6127,151.7917,,,,
05_S2,16/05/2023,16:20:27.700,0.0979,0.0962,0.9951,5.1041,5.4855,-6.4087,14.5954,-31.8179,151.7917,,,,
05_S2,16/05/2023,16:20:27.800,0.0713,0.1235,0.9841,2.3117,4.1428,-20.9351,13.8656,-31.6719,153.6891,,,,
05_S2,16/05/2023,16:20:27.900,0.1021,0.0645,0.9858,-1.6785,4.7913,-103.4622,13.5737,-27.8771,152.2296,,,,
05_S2,16/05/2023,16:20:28.000,0.0544,0.1147,1.0095,3.3569,0.9155,-18.3792,12.8439,-25.6878,151.4998,Inactive,0,23.28,
05_S2,16/05/2023,16:20:28.100,0.0706,0.1526,0.9966,10.5820,2.5024,-25.7339,13.4277,-23.3526,152.3756,,,,
05_S2,16/05/2023,16:20:28.200,0.0369,0.1536,1.0115,2.1591,0.9613,-52.2385,13.4277,-23.3526,152.3756,,,,
05_S2,16/05/2023,16:20:28.300,0.0295,0.1243,1.0220,-2.7237,-2.2507,-63.5910,12.1141,-20.8714,151.9377,,,,
05_S2,16/05/2023,16:20:28.400,-0.0115,0.1052,0.9924,-2.2812,6.4621,-133.6060,13.7196,-16.6387,152.9594,,,,
05_S2,16/05/2023,16:20:28.500,-0.0276,0.0452,0.9905,-4.0588,7.9575,-165.2527,17.8063,-7.0058,151.7917,,,,
05_S2,16/05/2023,16:20:28.600,-0.0471,0.0977,1.0237,0.9460,-7.4387,-20.1721,18.6821,-6.4220,152.0837,,,,
05_S2,16/05/2023,16:20:28.700,-0.0461,0.1472,0.9661,-5.2567,9.0408,-67.5583,22.6228,-3.9407,151.9377,,,,
05_S2,16/05/2023,16:20:28.800,-0.0691,-0.0173,1.0427,-4.2953,-2.2964,-162.9944,22.6228,-3.9407,151.9377,,,,
05_S2,16/05/2023,16:20:28.900,-0.0779,0.0654,1.0208,3.0136,-1.3199,-12.5732,27.2933,-1.6055,151.9377,,,,
05_S2,16/05/2023,16:20:29.000,-0.0806,0.0706,0.9900,0.3204,6.5765,-14.0533,28.6069,-0.5838,151.2079,Inactive,0,23.28,
05_S2,16/05/2023,16:20:29.100,-0.0745,0.0042,1.0161,-0.3128,1.0834,-117.7444,33.1315,1.0217,151.6458,,,,
05_S2,16/05/2023,16:20:29.200,-0.1077,-0.0110,1.0090,-2.3346,5.7373,-62.2101,37.3641,1.4595,151.2079,,,,
05_S2,16/05/2023,16:20:29.300,-0.1274,-0.0742,1.0032,-8.1787,15.4190,-69.3436,37.3641,1.4595,151.2079,,,,
05_S2,16/05/2023,16:20:29.400,-0.1531,-0.0012,1.0132,3.0365,-1.7166,-16.8304,42.3265,3.5029,149.7484,,,,
05_S2,16/05/2023,16:20:29.500,-0.1199,-0.0352,1.0010,4.6005,-5.0888,4.1199,40.4291,2.1893,151.0620,,,,
05_S2,16/05/2023,16:20:29.600,-0.1306,-0.0107,1.0161,-3.2959,1.7014,-11.2381,41.1589,1.7514,151.4998,,,,
05_S2,16/05/2023,16:20:29.700,-0.1362,-0.0393,1.0112,-4.5547,7.3090,-49.5987,42.6185,0.5838,150.9160,,,,
05_S2,16/05/2023,16:20:29.800,-0.1128,-0.0938,0.9980,-0.1221,1.8692,-71.1365,47.5809,1.4595,150.0403,,,,
05_S2,16/05/2023,16:20:29.900,-0.0986,-0.1189,0.9934,-2.2507,1.4267,-63.4613,47.5809,1.4595,150.0403,,,,
05_S2,16/05/2023,16:20:30.000,-0.1038,-0.0984,0.9888,-0.7477,1.3657,-44.9905,51.3757,1.1676,150.6241,Inactive,0,23.27,
05_S2,16/05/2023,16:20:30.100,-0.1047,-0.1292,0.9841,-3.6316,4.3488,-54.6875,54.4407,-1.8974,151.0620,,,,
05_S2,16/05/2023,16:20:30.200,-0.0889,-0.1504,0.9973,0.2060,-1.5793,-46.1502,56.6300,-3.7948,150.3322,,,,
05_S2,16/05/2023,16:20:30.300,-0.0842,-0.1423,1.0010,-4.8904,1.7700,-38.8336,57.7976,-4.6705,148.5808,,,,
05_S2,16/05/2023,16:20:30.400,-0.0723,-0.1809,0.9822,-5.0201,2.3270,-63.8504,60.5707,-8.9032,150.1863,,,,
05_S2,16/05/2023,16:20:30.500,-0.0366,-0.1863,1.0000,-3.2043,-2.9526,-72.2504,60.5707,-8.9032,150.1863,,,,
05_S2,16/05/2023,16:20:30.600,-0.0073,-0.2273,0.9724,-6.5155,-1.2131,-74.3637,62.9060,-11.5303,150.7701,,,,
05_S2,16/05/2023,16:20:30.700,0.0117,-0.2329,0.9756,-0.0992,-1.5793,-49.5300,64.9494,-15.9089,148.7267,,,,
05_S2,16/05/2023,16:20:30.800,0.0110,-0.2083,0.9968,-0.5417,0.6485,-23.4146,65.5332,-17.6604,151.0620,,,,
05_S2,16/05/2023,16:20:30.900,0.0320,-0.2222,0.9849,-0.5569,-0.4272,-35.2325,65.0953,-18.9740,150.3322,,,,
05_S2,16/05/2023,16:20:31.000,0.0466,-0.2295,0.9829,-0.0229,0.3815,-33.5464,65.0953,-18.9740,150.3322,Inactive,0,23.31,
05_S2,16/05/2023,16:20:31.100,0.0381,-0.2234,0.9832,0.5417,1.8158,-15.7089,66.5548,-20.7254,150.9160,,,,
05_S2,16/05/2023,16:20:31.200,0.0405,-0.2053,0.9846,-0.0687,3.1815,-17.5934,66.1170,-22.0390,149.6024,,,,
05_S2,16/05/2023,16:20:31.300,0.0632,-0.2192,0.9871,-0.7629,2.8763,-47.7982,66.9927,-22.9147,149.6024,,,,
05_S2,16/05/2023,16:20:31.400,0.0854,-0.2314,0.9797,-2.6779,-0.0687,-50.8957,65.8251,-27.5852,147.5591,,,,
05_S2,16/05/2023,16:20:31.500,0.0942,-0.2158,0.9888,0.5875,0.8621,-28.0075,66.5548,-28.0231,149.1646,,,,
05_S2,16/05/2023,16:20:31.600,0.0833,-0.2195,0.9756,2.5711,4.8752,-32.6309,66.5548,-28.0231,149.1646,,,,
05_S2,16/05/2023,16:20:31.700,0.1025,-0.2080,0.9832,-1.8387,1.1063,-34.8358,65.0953,-29.7745,149.1646,,,,
05_S2,16/05/2023,16:20:31.800,0.1038,-0.2002,0.9817,-1.2436,0.8240,-16.8839,65.6791,-31.5260,148.5808,,,,
05_S2,16/05/2023,16:20:31.900,0.1206,-0.2058,0.9783,-1.7700,3.5019,-48.4390,64.2196,-33.5693,149.1646,,,,
05_S2,16/05/2023,16:20:32.000,0.1277,-0.2107,0.9805,-2.8152,3.1204,-28.9154,63.6358,-35.0289,148.8727,Inactive,0,23.26,
05_S2,16/05/2023,16:20:32.100,0.1025,-0.2144,1.0046,2.3422,2.0676,-17.3264,64.3655,-35.1748,149.3105,,,,
05_S2,16/05/2023,16:20:32.200,0.1448,-0.1914,0.9724,11.0016,-1.6861,-36.9797,64.3655,-35.1748,149.3105,,,,
05_S2,16/05/2023,16:20:32.300,0.1255,-0.1865,0.9788,-1.6632,7.8659,-25.9476,63.0520,-37.6560,148.5808,,,,
05_S2,16/05/2023,16:20:32.400,0.1494,-0.1602,0.9885,-2.1591,8.8654,-78.5370,61.3005,-38.8237,151.4998,,,,
05_S2,16/05/2023,16:20:32.500,0.1699,-0.1702,0.9829,-3.5095,-0.6256,-58.0368,57.3598,-43.0563,150.4782,,,,
05_S2,16/05/2023,16:20:32.600,0.1641,-0.1528,0.9819,0.1068,-2.4033,-6.7444,57.6517,-43.0563,150.4782,,,,
05_S2,16/05/2023,16:20:32.700,0.1753,-0.1562,0.9839,1.8005,3.3951,-32.7911,57.6517,-43.0563,150.4782,,,,
05_S2,16/05/2023,16:20:32.800,0.1707,-0.1548,0.9880,1.6937,-1.8158,-26.8631,57.0679,-44.2239,149.3105,,,,
05_S2,16/05/2023,16:20:32.900,0.1802,-0.1438,0.9907,2.0294,0.5341,-6.9580,55.7543,-45.2456,151.2079,,,,
05_S2,16/05/2023,16:20:33.000,0.1904,-0.1208,0.9929,1.4114,8.1406,-57.8384,56.3381,-44.6618,150.6241,Inactive,0,23.28,
05_S2,16/05/2023,16:20:33.100,0.1851,-0.1270,0.9944,-2.3117,5.5389,-54.1611,51.0838,-47.5809,150.0403,,,,
05_S2,16/05/2023,16:20:33.200,0.1826,-0.1047,0.9700,-0.6409,-1.5945,-10.2463,51.8135,-49.1864,150.7701,,,,
05_S2,16/05/2023,16:20:33.300,0.1670,-0.1194,0.9905,-2.6703,6.9656,-5.4245,51.8135,-49.1864,150.7701,,,,
05_S2,16/05/2023,16:20:33.400,0.1633,-0.0938,0.9973,-3.7079,7.9422,-11.6272,50.7919,-47.8728,150.3322,,,,
05_S2,16/05/2023,16:20:33.500,0.1956,-0.0471,1.0005,0.3510,-2.4109,-105.1025,50.7919,-48.4566,151.4998,,,,
05_S2,16/05/2023,16:20:33.600,0.2380,-0.1177,0.9734,5.3177,-13.0539,-97.3282,42.1806,-49.4783,151.3539,,,,
05_S2,16/05/2023,16:20:33.700,0.2395,-0.0488,0.9802,5.7831,-8.2550,-13.6337,41.0130,-51.2297,148.7267,,,,
05_S2,16/05/2023,16:20:33.800,0.2390,-0.0159,0.9797,2.2125,-2.3346,-8.8043,40.8670,-51.6676,149.4565,,,,
05_S2,16/05/2023,16:20:33.900,0.2407,-0.0278,0.9958,-5.6381,4.2496,-44.6243,40.8670,-51.6676,149.4565,,,,
05_S2,16/05/2023,16:20:34.000,0.2417,-0.0464,0.9807,-11.4746,8.0109,-64.2700,37.9479,-51.6676,150.0403,Inactive,0,23.26,
05_S2,16/05/2023,16:20:34.100,0.2007,-0.0242,1.0393,-9.6436,2.3880,-54.5731,35.4667,-50.6459,151.9377,,,,
05_S2,16/05/2023,16:20:34.200,0.2024,-0.0354,0.9800,-8.1406,5.6686,-24.6735,34.7370,-50.2080,149.7484,,,,
05_S2,16/05/2023,16:20:34.300,0.2278,-0.0664,0.9868,-24.2310,8.6288,-44.2505,31.8179,-49.9161,150.6241,,,,
05_S2,16/05/2023,16:20:34.400,0.2253,-0.0857,1.0012,-14.6103,2.2202,-62.2101,31.8179,-49.9161,150.6241,,,,
05_S2,16/05/2023,16:20:34.500,0.2163,-0.0703,0.9866,-8.2779,4.4327,-41.9922,29.0448,-48.3106,151.0620,,,,
05_S2,16/05/2023,16:20:34.600,0.1990,-0.0181,0.9849,7.2556,-2.6321,-25.5280,27.4393,-47.8728,150.6241,,,,
05_S2,16/05/2023,16:20:34.700,0.2356,-0.0276,1.0037,12.1002,-1.0147,-88.9435,24.8121,-46.7052,150.6241,,,,
05_S2,16/05/2023,16:20:34.800,0.2522,-0.0205,0.9946,-2.8992,6.5002,-68.8629,21.1633,-44.2239,152.2296,,,,
05_S2,16/05/2023,16:20:34.900,0.2129,0.0386,0.9758,5.4016,1.8387,-14.0686,20.4335,-43.2023,150.6241,,,,
05_S2,16/05/2023,16:20:35.000,0.1895,0.0339,1.0066,-0.7172,3.0365,-17.6849,20.4335,-43.2023,150.6241,Inactive,0,23.29,
05_S2,16/05/2023,16:20:35.100,0.1687,0.0596,0.9912,3.4103,4.6768,-44.1513,20.4335,-41.4508,149.7484,,,,
05_S2,16/05/2023,16:20:35.200,0.1807,0.0652,1.0012,8.3771,2.2278,-46.2723,17.2225,-40.5751,151.4998,,,,
05_S2,16/05/2023,16:20:35.300,0.1877,0.1008,0.9832,9.0714,2.6627,-43.9606,15.6170,-37.8020,149.8943,,,,
05_S2,16/05/2023,16:20:35.400,0.2056,0.0994,0.9956,5.6458,-1.7242,-39.8026,15.3251,-36.6344,150.1863,,,,
05_S2,16/05/2023,16:20:35.500,0.1406,0.1489,0.9902,-0.9384,0.1144,-33.2718,12.5520,-34.4450,150.3322,,,,
05_S2,16/05/2023,16:20:35.600,0.1438,0.1406,1.0039,-5.6534,0.6561,-70.4346,12.5520,-34.4450,150.3322,,,,
05_S2,16/05/2023,16:20:35.700,0.1311,0.1362,1.0032,-1.9455,3.2806,-72.5174,11.5303,-30.2124,150.1863,,,,
05_S2,16/05/2023,16:20:35.800,0.1089,0.1604,0.9734,-2.0370,5.7831,-34.4086,10.9465,-27.2933,151.0620,,,,
05_S2,16/05/2023,16:20:35.900,0.1211,0.2358,0.9790,0.4044,-4.1046,-34.4086,10.3627,-26.7095,150.7701,,,,
05_S2,16/05/2023,16:20:36.000,0.0676,0.1294,1.0034,-8.4915,-7.0572,-160.1562,12.6980,-17.9523,151.6458,Inactive,0,23.29,
05_S2,16/05/2023,16:20:36.100,0.0491,0.1553,1.0195,0.1297,7.5836,-118.3777,12.6980,-17.9523,151.6458,,,,
05_S2,16/05/2023,16:20:36.200,0.0012,0.1331,0.9905,1.4114,7.8049,-84.7015,13.2818,-11.2384,151.9377,,,,
05_S2,16/05/2023,16:20:36.300,-0.0073,0.1499,0.9907,-1.1215,-7.6141,-70.9381,16.6387,-8.4653,151.4998,,,,
05_S2,16/05/2023,16:20:36.400,0.0007,0.1501,1.0085,0.0076,-8.4229,-87.8372,19.1199,-5.9841,151.3539,,,,
05_S2,16/05/2023,16:20:36.500,-0.0227,0.1387,0.9917,1.1597,-1.6785,-41.2521,21.6011,-2.9191,150.9160,,,,
05_S2,16/05/2023,16:20:36.600,-0.0281,0.1597,0.9875,2.6474,-3.1662,-7.4310,22.0390,-3.3569,151.3539,,,,
05_S2,16/05/2023,16:20:36.700,0.0039,0.1768,1.0237,12.3138,-10.5133,-14.6637,22.0390,-3.3569,151.3539,,,,
05_S2,16/05/2023,16:20:36.800,-0.0371,0.1125,0.9556,1.8768,3.7766,-20.6604,21.6011,-3.5029,151.2079,,,,
05_S2,16/05/2023,16:20:36.900,-0.0789,0.1875,0.9209,2.0218,10.5972,-19.6915,23.9364,-1.7514,151.4998,,,,
05_S2,16/05/2023,16:20:37.000,-0.0181,0.1709,1.0532,1.7853,-2.4261,-31.3644,23.9364,-0.2919,150.3322,Inactive,0,23.3,
05_S2,16/05/2023,16:20:37.100,-0.0410,0.1741,1.0278,-5.3787,-10.9406,-50.1404,27.1474,-0.5838,151.4998,,,,
05_S2,16/05/2023,16:20:37.200,-0.0508,0.0928,0.9934,-6.7215,-7.4997,-89.0732,31.5260,1.7514,150.9160,,,,
05_S2,16/05/2023,16:20:37.300,-0.0132,0.1172,1.0352,3.9825,-19.4397,-10.1852,31.5260,1.7514,150.9160,,,,
05_S2,16/05/2023,16:20:37.400,0.0061,0.1213,1.0278,-10.7117,-3.3417,-23.7427,31.5260,0.8757,151.7917,,,,
05_S2,16/05/2023,16:20:37.500,-0.0295,0.0439,0.9949,-20.3705,4.2343,-53.1311,36.6344,0.4379,153.3972,,,,
05_S2,16/05/2023,16:20:37.600,-0.0225,0.0549,1.0093,-10.9024,-7.7057,-3.5934,37.8020,-0.1460,152.5215,,,,
05_S2,16/05/2023,16:20:37.700,-0.0168,0.0532,1.0120,0.1068,-3.8757,-28.3051,38.2398,0.8757,152.3756,,,,
05_S2,16/05/2023,16:20:37.800,-0.0027,0.0303,1.0281,-1.2894,-1.3885,-24.0936,38.2398,0.8757,152.3756,,,,
05_S2,16/05/2023,16:20:37.900,-0.0261,0.0203,1.0039,-0.6027,0.9460,-3.3951,40.5751,0.8757,154.7108,,,,
05_S2,16/05/2023,16:20:38.000,-0.0234,0.0486,0.9924,1.8616,0.5264,-25.1312,40.7211,1.0217,152.8134,Inactive,0,23.31,
05_S2,16/05/2023,16:20:38.100,-0.0425,0.0049,1.0059,2.3651,-1.2665,-69.3665,42.7644,0.7298,154.2730,,,,
05_S2,16/05/2023,16:20:38.200,-0.0288,0.0330,0.9956,3.1281,-0.5646,-17.7917,43.9320,-1.8974,151.9377,,,,
05_S2,16/05/2023,16:20:38.300,-0.0266,0.0571,1.0112,11.8256,-9.9258,-6.6910,43.7861,-1.1676,155.0027,,,,
05_S2,16/05/2023,16:20:38.400,0.0183,0.0576,1.0376,5.2643,-5.9357,-11.7188,43.7861,-1.1676,155.0027,,,,
05_S2,16/05/2023,16:20:38.500,0.0061,0.0569,1.0269,6.6528,-4.7989,-38.6353,43.7861,-1.7514,154.7108,,,,
05_S2,16/05/2023,16:20:38.600,-0.0283,0.0583,0.9841,3.7460,4.5166,-25.7187,45.5375,-1.1676,155.5865,,,,
05_S2,16/05/2023,16:20:38.700,-0.0442,0.0552,0.9614,1.4954,4.6310,-6.8588,46.5592,-1.6055,153.3972,,,,
05_S2,16/05/2023,16:20:38.800,0.0315,0.1121,1.0283,-0.2060,-0.6180,-20.6070,46.8511,-2.1893,154.8568,,,,
05_S2,16/05/2023,16:20:38.900,-0.0935,0.0002,1.0347,-12.9395,1.7166,-140.3198,53.5650,-5.4003,153.3972,,,,
05_S2,16/05/2023,16:20:39.000,-0.0269,0.0178,1.0149,-8.6746,0.2594,-54.3900,53.5650,-5.4003,153.3972,Inactive,0,23.29,
05_S2,16/05/2023,16:20:39.100,-0.0471,-0.0081,0.9934,-7.6218,1.5335,-19.4397,55.0245,-6.8598,153.9810,,,,
05_S2,16/05/2023,16:20:39.200,-0.0469,-0.0198,1.0090,-6.8054,1.0071,-18.7988,56.4840,-7.4436,153.3972,,,,
05_S2,16/05/2023,16:20:39.300,-0.0061,-0.0044,0.9988,-13.8779,5.9814,-36.4761,57.3598,-8.9032,152.5215,,,,
05_S2,16/05/2023,16:20:39.400,-0.0464,-0.1035,1.0037,-15.2359,1.5106,-99.7849,60.7167,-12.5520,151.2079,,,,
05_S2,16/05/2023,16:20:39.500,-0.0142,-0.1108,1.0115,-10.8719,-3.1891,-61.7752,60.7167,-12.5520,151.2079,,,,
05_S2,16/05/2023,16:20:39.600,-0.0015,-0.2134,0.9829,-29.6631,-12.6648,-83.2977,63.4898,-14.7413,151.3539,,,,
05_S2,16/05/2023,16:20:39.700,0.0112,-0.2075,1.0049,-8.5907,-6.0577,-59.4559,64.9494,-21.1633,150.4782,,,,
05_S2,16/05/2023,16:20:39.800,0.0688,-0.1580,0.9968,4.0817,-5.5313,-34.3857,65.0953,-24.8121,150.9160,,,,
05_S2,16/05/2023,16:20:39.900,0.1108,-0.1567,0.9885,-1.6022,1.2360,-72.7921,65.8251,-27.5852,151.3539,,,,
05_S2,16/05/2023,16:20:40.000,0.1118,-0.1338,0.9941,-3.3722,2.0370,-94.2993,65.5332,-33.1315,150.1863,Inactive,0,23.31,
05_S2,16/05/2023,16:20:40.100,0.1790,-0.1616,0.9873,-5.9586,-2.7084,-133.5068,65.5332,-33.1315,150.1863,,,,
05_S2,16/05/2023,16:20:40.200,0.2117,-0.1360,0.9688,-3.7003,-5.4169,-110.3516,60.7167,-39.4075,150.0403,,,,
05_S2,16/05/2023,16:20:40.300,0.2234,-0.0925,0.9683,2.6398,-8.8959,-79.5975,56.4840,-44.2239,149.6024,,,,
05_S2,16/05/2023,16:20:40.400,0.2585,-0.0957,0.9741,-10.2310,-4.9057,-149.9481,51.5216,-47.7268,149.8943,,,,
05_S2,16/05/2023,16:20:40.500,0.2869,-0.0505,0.9702,-8.4152,6.9580,-75.2640,47.8728,-51.0838,149.7484,,,,
05_S2,16/05/2023,16:20:40.600,0.2451,-0.0227,1.0010,-1.8997,3.4485,-11.7416,46.4132,-51.0838,149.1646,,,,
05_S2,16/05/2023,16:20:40.700,0.2363,-0.0405,0.9856,1.8387,7.5302,-17.2958,46.4132,-51.0838,149.1646,,,,
05_S2,16/05/2023,16:20:40.800,0.2073,0.0291,1.0007,-9.4376,18.1808,-20.5307,45.9754,-49.4783,151.0620,,,,
05_S2,16/05/2023,16:20:40.900,0.2100,-0.0403,0.9863,-3.6316,7.3776,-90.6754,44.2239,-49.7702,151.0620,,,,
05_S2,16/05/2023,16:20:41.000,0.2021,-0.0640,0.9998,0.0916,0.5035,-61.5540,38.5318,-50.7919,149.7484,Inactive,0,23.3,
05_S2,16/05/2023,16:20:41.100,0.1987,0.0061,1.0164,-0.5798,0.3586,-6.8588,37.8020,-51.2297,150.7701,,,,
05_S2,16/05/2023,16:20:41.200,0.2058,0.0059,0.9841,-2.5635,-0.7324,-2.2812,37.8020,-51.2297,150.7701,,,,
05_S2,16/05/2023,16:20:41.300,0.2031,-0.0266,0.9949,0.0534,-0.4120,-1.6785,38.5318,-50.4999,151.2079,,,,
05_S2,16/05/2023,16:20:41.400,0.1814,-0.0195,1.0269,-4.8141,7.9422,-3.2425,37.0722,-50.2080,151.2079,,,,
05_S2,16/05/2023,16:20:41.500,0.1826,-0.0210,0.9785,-2.7008,13.7024,-7.1716,37.5101,-49.1864,151.6458,,,,
05_S2,16/05/2023,16:20:41.600,0.1284,-0.0020,1.0190,9.5749,-0.6409,-16.5634,36.4884,-49.3323,151.7917,,,,
05_S2,16/05/2023,16:20:41.700,0.1243,-0.0017,0.9900,-3.3569,6.7368,-45.6085,34.1531,-49.3323,151.7917,,,,
05_S2,16/05/2023,16:20:41.800,0.1196,-0.0024,0.9917,-7.2098,3.7842,-34.1721,34.1531,-49.3323,151.7917,,,,
05_S2,16/05/2023,16:20:41.900,0.1372,0.0061,1.0242,-10.3455,-5.3406,-19.3634,33.8612,-49.6242,152.0837,,,,
05_S2,16/05/2023,16:20:42.000,0.1396,-0.0161,1.0044,-10.6964,2.9602,-43.7241,34.0072,-47.4349,152.5215,Inactive,0,23.26,
05_S2,16/05/2023,16:20:42.100,0.1514,-0.0449,1.0178,-5.5389,-1.9226,-61.8744,29.9205,-48.0187,152.5215,,,,
05_S2,16/05/2023,16:20:42.200,0.1531,-0.0229,1.0020,-0.0076,0.8316,-44.6396,27.1474,-47.8728,152.6675,,,,
05_S2,16/05/2023,16:20:42.300,0.1460,-0.0034,0.9927,-0.2670,-0.7553,-39.6423,27.1474,-47.8728,152.6675,,,,
05_S2,16/05/2023,16:20:42.400,0.1641,0.0024,1.0078,-0.1373,-3.7308,-51.2772,26.5636,-46.9971,152.6675,,,,
05_S2,16/05/2023,16:20:42.500,0.1746,-0.0005,1.0051,6.3019,-4.5929,-28.1677,25.3959,-45.8294,152.3756,,,,
05_S2,16/05/2023,16:20:42.600,0.1533,0.0334,0.9907,5.1193,0.0610,-16.8915,23.0607,-44.9537,150.6241,,,,
05_S2,16/05/2023,16:20:42.700,0.1550,0.0527,1.0117,12.9852,2.6779,-37.8876,20.4335,-44.9537,150.9160,,,,
05_S2,16/05/2023,16:20:42.800,0.1436,0.0884,0.9827,16.9067,13.1760,-31.5399,19.1199,-42.4725,151.9377,,,,
05_S2,16/05/2023,16:20:42.900,0.1318,0.1033,0.9897,4.4861,5.9052,-14.1449,19.1199,-42.4725,151.9377,,,,
05_S2,16/05/2023,16:20:43.000,0.1279,0.1155,1.0027,6.0043,-0.6943,-13.9542,18.0982,-42.0346,151.4998,Inactive,0,23.29,
05_S2,16/05/2023,16:20:43.100,0.1667,0.1604,0.9812,6.9885,-2.0065,-19.4473,17.0766,-40.7211,151.0620,,,,
05_S2,16/05/2023,16:20:43.200,0.1257,0.1467,1.0012,3.1586,-0.5035,-61.3403,17.3685,-38.0939,150.4782,,,,
05_S2,16/05/2023,16:20:43.300,0.0801,0.1470,0.9895,2.2049,-0.4883,-69.0460,14.1575,-37.2182,150.1863,,,,
05_S2,16/05/2023,16:20:43.400,0.0867,0.1636,1.0059,1.6174,-0.7706,-47.6303,11.6763,-34.4450,150.9160,,,,
05_S2,16/05/2023,16:20:43.500,0.0642,0.1621,0.9858,-1.7166,1.2741,-43.6707,11.6763,-34.4450,150.9160,,,,
05_S2,16/05/2023,16:20:43.600,0.0654,0.1438,1.0117,-3.0899,-1.2665,-43.4723,10.5087,-31.2341,150.9160,,,,
05_S2,16/05/2023,16:20:43.700,0.0630,0.1711,0.9929,-0.2518,-4.8981,-44.4489,11.8222,-28.7529,151.0620,,,,
05_S2,16/05/2023,16:20:43.800,0.0476,0.1624,0.9973,0.3204,-4.2572,-47.3633,12.2601,-26.5636,150.9160,,,,
05_S2,16/05/2023,16:20:43.900,0.0388,0.1597,1.0056,-1.1902,-1.7014,-42.5568,10.8006,-24.5202,150.9160,,,,
05_S2,16/05/2023,16:20:44.000,0.0334,0.1577,1.0088,-2.3117,0.8316,-53.3371,10.8006,-24.5202,150.9160,Inactive,0,23.32,
05_S2,16/05/2023,16:20:44.100,0.0054,0.1372,0.9985,-2.9068,2.4338,-62.0880,11.2384,-21.7471,151.6458,,,,
05_S2,16/05/2023,16:20:44.200,-0.0068,0.1370,0.9983,-1.2131,0.6332,-38.8870,12.6980,-18.8280,150.4782,,,,
05_S2,16/05/2023,16:20:44.300,-0.0100,0.1445,1.0027,-0.7401,-0.7248,-32.7072,12.2601,-16.9306,150.9160,,,,
05_S2,16/05/2023,16:20:44.400,-0.0210,0.1360,1.0093,-2.7237,-0.3891,-57.9147,13.2818,-14.7413,151.0620,,,,
05_S2,16/05/2023,16:20:44.500,-0.0366,0.1069,0.9937,-3.3569,0.0381,-65.9561,14.8873,-9.6329,150.9160,,,,
05_S2,16/05/2023,16:20:44.600,-0.0322,0.1174,1.0020,0.3433,-4.1199,-66.8640,14.8873,-9.6329,150.9160,,,,
05_S2,16/05/2023,16:20:44.700,-0.0232,0.0945,1.0144,0.5798,-14.0152,-144.9509,16.9306,-6.4220,151.7917,,,,
05_S2,16/05/2023,16:20:44.800,-0.0549,0.0459,1.0139,-0.5341,-1.6022,-130.1880,24.0823,-2.4812,152.5215,,,,
05_S2,16/05/2023,16:20:44.900,-0.0618,0.0984,1.0151,7.2708,-1.0147,-21.2860,26.7095,-0.7298,151.6458,,,,
05_S2,16/05/2023,16:20:45.000,-0.0454,0.1213,1.0007,4.4861,-1.9073,-44.3268,28.3150,0.0000,151.7917,Inactive,0,23.32,
05_S2,16/05/2023,16:20:45.100,-0.0759,0.0508,1.0195,-2.3956,-5.1804,-134.3765,37.2182,1.6055,151.6458,,,,
05_S2,16/05/2023,16:20:45.200,-0.0725,0.0386,1.0042,-2.4872,-4.5547,-84.8770,37.2182,1.6055,151.6458,,,,
05_S2,16/05/2023,16:20:45.300,-0.0552,0.0500,1.0195,2.0523,-6.8512,-43.9606,39.1156,0.0000,153.5432,,,,
05_S2,16/05/2023,16:20:45.400,-0.0623,0.0190,1.0063,0.4349,-3.9673,-68.6569,41.7427,0.8757,152.9594,,,,
05_S2,16/05/2023,16:20:45.500,-0.0483,0.0359,1.0142,-2.7313,-1.5564,-73.7000,45.8294,-1.1676,154.7108,,,,
05_S2,16/05/2023,16:20:45.600,-0.0486,0.0000,1.0056,0.2670,-1.2894,-86.9522,49.6242,-2.6272,152.6675,,,,
05_S2,16/05/2023,16:20:45.700,-0.0576,-0.0278,1.0056,-3.7766,-2.5558,-70.3278,49.6242,-2.6272,152.6675,,,,
05_S2,16/05/2023,16:20:45.800,-0.0251,-0.0156,1.0115,-7.4463,-3.4027,-61.8439,53.1271,-4.6705,153.5432,,,,
05_S2,16/05/2023,16:20:45.900,-0.0198,-0.0190,1.0063,-6.0501,-2.4948,-96.6644,57.3598,-7.1517,153.9810,,,,
05_S2,16/05/2023,16:20:46.000,0.0186,-0.0583,1.0217,-5.8289,-4.4174,-116.3940,61.3005,-12.8439,153.8351,Inactive,0,23.3,
05_S2,16/05/2023,16:20:46.100,0.0063,-0.1050,0.9893,-5.3024,-3.9825,-94.9402,62.6141,-17.3685,152.5215,,,,
05_S2,16/05/2023,16:20:46.200,0.0337,-0.0972,1.0103,0.6104,-0.7553,-46.4020,63.1979,-20.2876,153.6891,,,,
05_S2,16/05/2023,16:20:46.300,0.0217,-0.0857,1.0054,3.8528,-1.4801,-14.3204,63.1979,-20.2876,153.6891,,,,
05_S2,16/05/2023,16:20:46.400,0.0212,-0.0791,1.0029,6.5613,5.0659,-7.3547,62.6141,-20.8714,152.8134,,,,
05_S2,16/05/2023,16:20:46.500,-0.0010,-0.0691,1.0142,1.8616,5.7220,-4.5776,63.7817,-20.5795,153.6891,,,,
05_S2,16/05/2023,16:20:46.600,0.0051,-0.0889,1.0161,-2.9984,9.0027,-44.2505,63.0520,-21.0173,152.6675,,,,
05_S2,16/05/2023,16:20:46.700,0.0427,-0.0215,1.0190,-6.1798,-4.3640,-62.9120,64.2196,-25.3959,154.1270,,,,
05_S2,16/05/2023,16:20:46.800,0.0330,-0.1667,1.0098,-12.3596,-16.2582,-92.4149,62.1762,-31.2341,152.6675,,,,
05_S2,16/05/2023,16:20:46.900,0.0918,-0.0007,0.9988,-4.3182,4.3488,-55.6946,62.1762,-31.2341,152.6675,,,,
05_S2,16/05/2023,16:20:47.000,0.1064,-0.1086,0.9888,-4.8981,10.1700,-160.9955,62.0303,-32.8396,152.2296,Inactive,0,23.31,
05_S2,16/05/2023,16:20:47.100,0.1064,-0.1416,1.0100,-3.2272,-2.3193,-142.3874,57.9436,-38.9696,151.6458,,,,
05_S2,16/05/2023,16:20:47.200,0.1348,-0.0540,0.9976,-2.9984,-1.7548,-80.0095,54.0028,-44.3699,152.0837,,,,
05_S2,16/05/2023,16:20:47.300,0.1582,-0.0535,0.9958,-8.7509,5.2109,-133.0948,48.1647,-47.8728,152.0837,,,,
05_S2,16/05/2023,16:20:47.400,0.1428,-0.1140,0.9929,1.8539,2.2888,-102.6840,48.1647,-47.8728,152.0837,,,,
05_S2,16/05/2023,16:20:47.500,0.1311,0.0532,1.0081,3.3188,0.8850,-33.7677,43.6401,-49.1864,152.5215,,,,
05_S2,16/05/2023,16:20:47.600,0.1841,-0.0071,0.9736,-2.9984,0.0610,-144.3253,39.2615,-50.6459,152.2296,,,,
05_S2,16/05/2023,16:20:47.700,0.1926,-0.0200,1.0032,-4.4708,0.8392,-139.1296,31.6719,-48.6025,151.6458,,,,
05_S2,16/05/2023,16:20:47.800,0.1497,0.1116,1.0073,1.9379,0.4883,-90.4999,26.8555,-47.8728,152.9594,,,,
05_S2,16/05/2023,16:20:47.900,0.1438,0.0378,1.0151,-3.4866,0.4044,-160.4004,19.8497,-42.3265,152.0837,,,,
05_S2,16/05/2023,16:20:48.000,0.1555,0.0640,1.0117,0.1297,-0.1907,-108.1848,19.8497,-42.3265,152.0837,Inactive,0,23.31,
05_S2,16/05/2023,16:20:48.100,0.1201,0.0974,1.0122,0.1221,1.2054,-38.0783,16.7847,-39.5534,150.4782,,,,
05_S2,16/05/2023,16:20:48.200,0.1055,0.1040,1.0095,-0.6638,-0.2518,-32.7759,15.6170,-38.6777,152.5215,,,,
05_S2,16/05/2023,16:20:48.300,0.1187,0.0857,1.0105,-0.3510,-0.3052,-46.5927,14.5954,-35.6127,151.4998,,,,
05_S2,16/05/2023,16:20:48.400,0.0981,0.1018,1.0046,-1.3504,1.5411,-12.6724,14.0115,-34.7370,152.6675,,,,
05_S2,16/05/2023,16:20:48.500,0.1023,0.1099,1.0083,-1.0834,-0.0839,-9.9869,14.4494,-35.4667,152.5215,,,,
05_S2,16/05/2023,16:20:48.600,0.0815,0.0808,1.0142,-6.0272,1.5945,-26.4816,14.4494,-35.4667,152.5215,,,,
05_S2,16/05/2023,16:20:48.700,0.0642,0.0815,1.0022,2.6550,0.8163,-20.2332,13.7196,-33.2774,153.2513,,,,
05_S2,16/05/2023,16:20:48.800,0.1008,0.1040,0.9963,2.3575,-0.0992,-16.4795,13.2818,-33.4234,152.8134,,,,
05_S2,16/05/2023,16:20:48.900,0.0598,0.0999,0.9958,-1.0300,0.4196,-33.1345,13.8656,-30.5043,151.9377,,,,
05_S2,16/05/2023,16:20:49.000,0.0806,0.1160,0.9927,1.8158,0.6256,-24.8337,13.1358,-28.8988,152.6675,Inactive,0,23.32,
05_S2,16/05/2023,16:20:49.100,0.0669,0.1091,1.0110,0.7477,-0.1755,-52.3148,13.1358,-28.8988,152.6675,,,,
05_S2,16/05/2023,16:20:49.200,0.0320,0.0847,1.0093,-0.2747,5.3024,-73.1888,12.5520,-26.5636,151.4998,,,,
05_S2,16/05/2023,16:20:49.300,0.0254,0.1028,1.0090,1.0147,4.2038,-33.1268,11.9682,-21.6011,152.0837,,,,
05_S2,16/05/2023,16:20:49.400,0.0107,0.1204,1.0000,1.0986,2.5940,-13.1531,12.4061,-22.0390,152.5215,,,,
05_S2,16/05/2023,16:20:49.500,0.0176,0.1106,1.0215,-1.7548,2.9221,-45.0058,12.4061,-19.4118,151.3539,,,,
05_S2,16/05/2023,16:20:49.600,-0.0239,0.0916,1.0005,0.6256,9.3689,-45.1584,12.5520,-15.7630,152.0837,,,,
05_S2,16/05/2023,16:20:49.700,-0.0286,0.0986,1.0085,-0.3815,5.4703,-30.7007,12.5520,-15.7630,152.0837,,,,
05_S2,16/05/2023,16:20:49.800,-0.0493,0.0850,0.9946,-0.4578,4.1809,-31.4789,13.5737,-15.6170,152.5215,,,,
05_S2,16/05/2023,16:20:49.900,-0.0522,0.0906,1.0061,0.4883,-2.3804,-29.0070,14.0115,-13.1358,152.3756,,,,
05_S2,16/05/2023,16:20:50.000,-0.0430,0.1138,1.0166,2.9449,1.8768,-42.6941,14.1575,-11.8222,151.6458,Inactive,0,23.31,
05_S2,16/05/2023,16:20:50.100,-0.0635,0.0615,1.0037,2.1973,-2.8000,-98.4268,19.4118,-6.8598,151.9377,,,,
05_S2,16/05/2023,16:20:50.200,-0.0566,0.0496,1.0037,1.5945,-10.9100,-86.9217,22.4769,-4.3786,151.4998,,,,
05_S2,16/05/2023,16:20:50.300,-0.0525,0.0391,1.0081,-2.2736,-3.3493,-64.4684,22.4769,-4.3786,151.4998,,,,
05_S2,16/05/2023,16:20:50.400,-0.0391,0.0510,1.0110,-2.9144,-4.0207,-64.4608,23.9364,-3.5029,151.2079,,,,
05_S2,16/05/2023,16:20:50.500,-0.0496,0.0059,1.0186,-4.3182,-3.5782,-96.0541,28.7529,-1.8974,151.6458,,,,
05_S2,16/05/2023,16:20:50.600,-0.0464,-0.0051,0.9993,-5.5695,-0.3891,-82.0236,32.9855,0.8757,153.2513,,,,
05_S2,16/05/2023,16:20:50.700,-0.0500,-0.0286,1.0056,2.3422,-3.0594,-93.0481,37.8020,1.3136,153.6891,,,,
05_S2,16/05/2023,16:20:50.800,-0.0459,-0.0203,1.0073,1.0300,-2.4719,-50.0259,37.8020,1.3136,153.6891,,,,
05_S2,16/05/2023,16:20:50.900,-0.0305,-0.0149,1.0085,2.2278,-2.5253,-32.5165,39.8453,1.0217,152.8134,,,,
05_S2,16/05/2023,16:20:51.000,-0.0264,-0.0085,1.0159,7.2174,-2.9602,-47.6303,42.0346,1.1676,154.1270,Inactive,0,23.29,
05_S2,16/05/2023,16:20:51.100,-0.0352,-0.0066,1.0093,3.2730,-2.7084,-37.1857,44.6618,-0.5838,153.8351,,,,
05_S2,16/05/2023,16:20:51.200,0.0042,-0.0125,1.0347,-5.9509,-3.0899,-49.8505,45.8294,-2.3353,153.2513,,,,
05_S2,16/05/2023,16:20:51.300,-0.0371,-0.0554,1.0049,-8.0490,0.2441,-71.2128,50.2080,-3.2110,153.5432,,,,
05_S2,16/05/2023,16:20:51.400,-0.0012,-0.0435,1.0254,-2.7313,0.1602,-18.0664,50.2080,-3.2110,153.5432,,,,
05_S2,16/05/2023,16:20:51.500,0.0090,-0.0535,1.0076,-0.8087,-0.7477,-12.0697,51.0838,-2.3353,152.6675,,,,
05_S2,16/05/2023,16:20:51.600,-0.0474,-0.0315,0.9875,4.0512,0.3052,-13.8855,51.2297,-4.5246,153.9810,,,,
05_S2,16/05/2023,16:20:51.700,0.0247,-0.0342,1.0269,8.9417,-1.3351,-6.8588,51.6676,-4.0867,153.5432,,,,
05_S2,16/05/2023,16:20:51.800,-0.0039,-0.0071,1.0024,-7.8049,0.3891,-15.0452,52.1054,-4.5246,153.1053,,,,
05_S2,16/05/2023,16:20:51.900,-0.0017,-0.0696,1.0186,-1.4191,-1.6708,-56.0989,54.0028,-5.5462,153.8351,,,,
05_S2,16/05/2023,16:20:52.000,-0.0024,-0.0635,1.0071,1.1902,-1.3123,-22.4457,54.0028,-5.5462,153.8351,Inactive,0,23.32,
05_S2,16/05/2023,16:20:52.100,0.0305,-0.0369,1.0156,-0.1373,-1.4801,-22.3770,54.4407,-6.5679,153.6891,,,,
05_S2,16/05/2023,16:20:52.200,0.0120,-0.0845,1.0210,-0.6561,-1.0681,-79.6814,57.3598,-8.3194,153.6891,,,,
05_S2,16/05/2023,16:20:52.300,0.0247,-0.0588,1.0066,0.8545,-0.4959,-35.6522,58.0895,-10.2168,154.4189,,,,
05_S2,16/05/2023,16:20:52.400,0.0342,-0.0662,1.0061,-0.0763,-0.3586,-23.8190,59.4031,-12.4061,153.3972,,,,
05_S2,16/05/2023,16:20:52.500,0.0217,-0.0684,1.0134,-0.4120,-1.2207,-22.9263,59.4031,-12.4061,153.3972,,,,
05_S2,16/05/2023,16:20:52.600,0.0315,-0.0715,1.0010,1.0147,-1.4801,-7.9651,59.9869,-12.4061,153.6891,,,,
05_S2,16/05/2023,16:20:52.700,0.0366,-0.0583,1.0156,1.4343,-1.4496,-6.7596,59.6950,-11.8222,152.8134,,,,
05_S2,16/05/2023,16:20:52.800,0.0417,-0.0640,1.0103,0.0534,-0.9766,-8.0490,60.2788,-13.2818,154.2730,,,,
05_S2,16/05/2023,16:20:52.900,0.0442,-0.0742,0.9961,0.6790,-0.4578,-1.3199,59.9869,-13.8656,153.9810,,,,
05_S2,16/05/2023,16:20:53.000,0.0295,-0.0647,1.0083,0.8545,-1.0071,-2.5253,60.5707,-13.5737,153.3972,Inactive,0,23.32,
05_S2,16/05/2023,16:20:53.100,0.0488,-0.0588,1.0059,0.8774,-0.0305,-11.1008,60.5707,-13.5737,153.3972,,,,
05_S2,16/05/2023,16:20:53.200,0.0400,-0.0771,1.0073,0.6714,-0.2823,-32.0282,60.7167,-14.0115,154.1270,,,,
05_S2,16/05/2023,16:20:53.300,0.0444,-0.0657,1.0112,1.0834,-0.2518,-7.3395,61.0086,-15.4711,154.7108,,,,
05_S2,16/05/2023,16:20:53.400,0.0476,-0.0630,1.0081,0.2136,-1.0681,-1.0071,61.0086,-16.0549,153.5432,,,,
05_S2,16/05/2023,16:20:53.500,0.0415,-0.0598,1.0122,-0.0610,-0.9460,-1.9302,61.4465,-15.9089,154.5649,,,,
05_S2,16/05/2023,16:20:53.600,0.0471,-0.0667,1.0166,0.8621,1.5106,-10.1013,60.8627,-17.3685,153.9810,,,,
05_S2,16/05/2023,16:20:53.700,0.0430,-0.0603,1.0110,1.6479,0.4578,-5.8441,60.8627,-17.3685,153.9810,,,,
05_S2,16/05/2023,16:20:53.800,0.0566,-0.0703,0.9897,0.2975,-0.9613,-8.2626,61.3005,-15.7630,154.7108,,,,
05_S2,16/05/2023,16:20:53.900,0.0476,-0.0559,1.0127,0.4044,-1.4725,-14.5264,61.4465,-16.4928,154.2730,,,,
05_S2,16/05/2023,16:20:54.000,0.0540,-0.0608,1.0005,-2.6398,-3.2654,-11.0550,61.1546,-16.2008,154.5649,Inactive,0,23.32,
05_S2,16/05/2023,16:20:54.100,0.0549,-0.0801,1.0010,-2.4109,0.1984,-15.2435,63.4898,-17.6604,154.5649,,,,
05_S2,16/05/2023,16:20:54.200,0.0474,-0.0615,1.0291,1.1902,1.5945,-11.3907,63.4898,-17.6604,154.5649,,,,
05_S2,16/05/2023,16:20:54.300,0.0652,-0.0864,0.9983,1.2665,3.2654,-4.6234,62.7600,-18.0982,152.9594,,,,
05_S2,16/05/2023,16:20:54.400,0.0278,-0.0688,1.0149,-0.4807,-1.8158,-18.2724,61.7384,-18.2442,153.6891,,,,
05_S2,16/05/2023,16:20:54.500,0.0503,-0.0964,0.9751,-1.8616,0.0229,-26.5045,62.7600,-19.5578,153.8351,,,,
05_S2,16/05/2023,16:20:54.600,0.0632,-0.0588,1.0222,0.7095,2.3193,-18.6844,63.6358,-19.5578,154.4189,,,,
05_S2,16/05/2023,16:20:54.700,0.0623,-0.0715,1.0066,-0.5264,1.2589,-36.7584,62.0303,-22.3309,152.5215,,,,
05_S2,16/05/2023,16:20:54.800,0.0586,-0.0947,1.0105,-1.3123,-2.8076,-38.8184,62.0303,-22.3309,152.5215,,,,
05_S2,16/05/2023,16:20:54.900,0.0652,-0.0879,1.0027,-0.4807,-0.7706,-17.1356,62.6141,-25.2500,153.9810,,,,
05_S2,16/05/2023,16:20:55.000,0.0701,-0.0779,1.0076,-0.0916,-0.1144,-12.0926,62.7600,-25.3959,153.2513,Inactive,0,23.33,
05_S2,16/05/2023,16:20:55.100,0.0723,-0.0798,1.0081,0.0534,-2.0981,-18.6462,63.0520,-26.5636,154.4189,,,,
05_S2,16/05/2023,16:20:55.200,0.0884,-0.0764,0.9985,-0.6409,-5.1422,-21.4844,63.4898,-27.0014,151.6458,,,,
05_S2,16/05/2023,16:20:55.300,0.1030,-0.0701,1.0012,-0.8316,-1.0986,-32.0511,63.4898,-27.0014,151.6458,,,,
05_S2,16/05/2023,16:20:55.400,0.0969,-0.0798,1.0056,-0.6866,-5.1956,-32.5928,62.0303,-29.6286,154.2730,,,,
05_S2,16/05/2023,16:20:55.500,0.1155,-0.0688,1.0017,-0.7477,0.1526,-35.9879,63.4898,-31.0881,152.8134,,,,
05_S2,16/05/2023,16:20:55.600,0.1213,-0.0591,1.0054,-1.1749,-0.1602,-44.8990,62.0303,-34.2991,152.5215,,,,
05_S2,16/05/2023,16:20:55.700,0.1187,-0.0813,1.0059,-1.7166,0.9460,-49.0799,61.1546,-34.8829,152.5215,,,,
05_S2,16/05/2023,16:20:55.800,0.1189,-0.0764,0.9983,-1.2207,1.7700,-26.4816,59.8410,-37.6560,152.6675,,,,
05_S2,16/05/2023,16:20:55.900,0.1191,-0.0701,0.9954,-0.1678,0.8621,-27.8625,59.8410,-37.6560,152.6675,,,,
05_S2,16/05/2023,16:20:56.000,0.1208,-0.0376,1.0249,-2.1286,4.3335,-45.4102,59.8410,-38.5318,152.6675,Inactive,0,23.31,
05_S2,16/05/2023,16:20:56.100,0.1228,-0.0588,0.9912,-3.0365,3.9825,-65.0101,58.8193,-40.1372,152.8134,,,,
05_S2,16/05/2023,16:20:56.200,0.1267,-0.0493,1.0098,-2.2430,-1.7548,-64.2395,55.6083,-42.7644,153.3972,,,,
05_S2,16/05/2023,16:20:56.300,0.1387,-0.0454,1.0095,-0.1984,-2.3193,-34.2865,54.7326,-43.6401,152.8134,,,,
05_S2,16/05/2023,16:20:56.400,0.1504,-0.0354,1.0049,1.5106,-5.0888,-44.1360,51.2297,-45.6835,151.9377,,,,
05_S2,16/05/2023,16:20:56.500,0.1538,-0.0667,0.9956,-5.0583,3.8834,-50.5447,51.2297,-45.6835,151.9377,,,,
05_S2,16/05/2023,16:20:56.600,0.1284,-0.0227,1.0088,-1.8082,3.6621,-19.7754,49.6242,-46.4132,153.5432,,,,
05_S2,16/05/2023,16:20:56.700,0.1641,-0.0120,1.0103,-0.4044,-1.4038,-67.6270,49.1864,-45.9754,152.2296,,,,
05_S2,16/05/2023,16:20:56.800,0.1653,-0.0740,1.0005,-4.0131,-0.4959,-73.2117,44.2239,-49.1864,153.3972,,,,
05_S2,16/05/2023,16:20:56.900,0.1492,-0.0081,1.0107,3.0060,-0.6866,-12.6343,43.4942,-49.3323,152.9594,,,,
05_S2,16/05/2023,16:20:57.000,0.1355,0.0371,1.0076,-0.9995,2.7771,-15.1825,43.4942,-49.3323,152.9594,Inactive,0,23.32,
05_S2,16/05/2023,16:20:57.100,0.1567,-0.0396,0.9958,-2.1362,0.1907,-58.7158,44.5158,-47.7268,152.8134,,,,
05_S2,16/05/2023,16:20:57.200,0.1431,0.0093,1.0066,1.6022,-1.2360,-18.5928,39.9913,-49.6242,152.6675,,,,
05_S2,16/05/2023,16:20:57.300,0.1448,0.0488,1.0076,0.8316,-1.0071,-38.0173,39.6994,-50.2080,152.6675,,,,
05_S2,16/05/2023,16:20:57.400,0.1450,0.0098,1.0046,-6.3858,0.9842,-75.1266,35.6127,-48.7485,151.4998,,,,
05_S2,16/05/2023,16:20:57.500,0.1438,0.0051,1.0125,1.5106,0.1526,-41.6870,32.1098,-49.3323,152.6675,,,,
05_S2,16/05/2023,16:20:57.600,0.1321,0.0461,1.0076,4.8904,0.0916,-11.6119,32.1098,-49.3323,152.6675,,,,
05_S2,16/05/2023,16:20:57.700,0.1335,0.0532,1.0002,4.5471,0.0916,-11.8484,32.6936,-47.5809,152.9594,,,,
05_S2,16/05/2023,16:20:57.800,0.1628,0.0178,1.0095,1.3657,1.0834,-2.6779,32.4017,-48.7485,151.4998,,,,
05_S2,16/05/2023,16:20:57.900,0.1160,0.0498,1.0073,0.2899,1.6022,-7.9956,31.6719,-49.1864,151.9377,,,,
05_S2,16/05/2023,16:20:58.000,0.1067,0.0732,1.0251,-0.8926,0.5646,-11.6348,31.3800,-48.0187,152.8134,Inactive,0,23.33,
05_S2,16/05/2023,16:20:58.100,0.1033,0.0430,1.0051,-7.3395,2.7771,-67.7032,28.4610,-46.5592,152.5215,,,,
05_S2,16/05/2023,16:20:58.200,0.1318,0.0559,0.9937,-3.6011,-0.7401,-92.7658,28.4610,-46.5592,152.5215,,,,
05_S2,16/05/2023,16:20:58.300,0.1123,0.0398,1.0032,-6.1874,-0.9308,-93.1473,23.9364,-43.7861,152.6675,,,,
05_S2,16/05/2023,16:20:58.400,0.0955,0.0767,1.0049,-0.0076,-1.1978,-46.3638,19.9956,-41.5968,152.5215,,,,
05_S2,16/05/2023,16:20:58.500,0.1067,0.0581,1.0144,-1.7929,-2.7695,-77.6062,19.4118,-41.0130,152.5215,,,,
05_S2,16/05/2023,16:20:58.600,0.1150,0.0605,1.0107,-0.8850,0.3357,-47.6379,17.3685,-37.8020,151.9377,,,,
05_S2,16/05/2023,16:20:58.700,0.0840,0.0806,0.9993,1.8463,1.2360,-12.7106,17.3685,-37.8020,151.9377,,,,
05_S2,16/05/2023,16:20:58.800,0.0950,0.0884,1.0037,1.3428,0.7172,-3.8452,17.3685,-37.2182,153.1053,,,,
05_S2,16/05/2023,16:20:58.900,0.0818,0.0608,1.0239,1.6861,-3.8300,-16.1972,16.9306,-39.1156,152.3756,,,,
05_S2,16/05/2023,16:20:59.000,0.0828,0.0854,1.0017,0.7248,-0.1526,-23.9716,15.7630,-37.0722,152.6675,Inactive,0,23.33,
05_S2,16/05/2023,16:20:59.100,0.0896,0.0886,1.0027,2.2278,1.0300,-15.0452,15.1792,-35.6127,152.9594,,,,
05_S2,16/05/2023,16:20:59.200,0.0830,0.1018,1.0032,1.4114,-1.4877,-10.1624,14.1575,-34.5910,152.8134,,,,
05_S2,16/05/2023,16:20:59.300,0.0818,0.0796,1.0215,-1.4038,-1.0376,-38.7344,14.1575,-34.5910,152.8134,,,,
05_S2,16/05/2023,16:20:59.400,0.0596,0.0920,1.0007,-0.6332,-0.9308,-31.1813,13.4277,-34.4450,152.0837,,,,
05_S2,16/05/2023,16:20:59.500,0.0945,0.1150,1.0056,0.6104,-1.2589,-16.3956,14.0115,-32.4017,151.4998,,,,
05_S2,16/05/2023,16:20:59.600,0.0635,0.0847,1.0068,-1.8768,-0.3433,-65.5670,13.8656,-31.6719,152.5215,,,,
05_S2,16/05/2023,16:20:59.700,0.0500,0.0862,0.9937,-0.9842,0.9460,-47.3328,12.2601,-27.7312,153.2513,,,,
05_S2,16/05/2023,16:20:59.800,0.0576,0.1023,1.0132,-0.9384,-0.4730,-28.4958,13.4277,-25.9797,152.6675,,,,
05_S2,16/05/2023,16:20:59.900,0.0415,0.0771,1.0156,-1.4954,1.3885,-39.7644,13.4277,-25.9797,152.6675,,,,
05_S2,16/05/2023,16:21:00.000,0.0354,0.0896,1.0098,0.6561,1.3275,-22.3389,12.1141,-24.3743,152.5215,Inactive,0,23.32,
05_S2,16/05/2023,16:21:00.100,0.0251,0.1150,1.0083,-0.6866,3.5019,-36.5143,12.9899,-23.2066,153.1053,,,,
05_S2,16/05/2023,16:21:00.200,0.0103,0.0774,1.0188,-4.0512,10.4065,-78.5980,12.9899,-18.8280,152.8134,,,,
05_S2,16/05/2023,16:21:00.300,-0.0356,0.0527,0.9829,-1.7929,6.5079,-76.8509,15.4711,-14.3035,152.3756,,,,
05_S2,16/05/2023,16:21:00.400,-0.0029,0.0837,1.0190,-0.0305,-0.3204,-44.3649,15.4711,-14.3035,152.3756,,,,
05_S2,16/05/2023,16:21:00.500,-0.0354,0.0454,1.0042,0.5188,-4.4098,-85.8383,15.7630,-12.8439,153.5432,,,,
05_S2,16/05/2023,16:21:00.600,-0.0356,0.0603,1.0005,-0.5569,-3.6774,-73.9365,16.4928,-8.3194,152.8134,,,,
05_S2,16/05/2023,16:21:00.700,-0.0168,0.0315,1.0288,-5.7526,-0.6714,-130.2872,20.8714,-4.5246,152.5215,,,,
05_S2,16/05/2023,16:21:00.800,-0.0408,-0.0032,1.0032,-0.1297,-2.3346,-73.3185,26.7095,-2.1893,153.1053,,,,
05_S2,16/05/2023,16:21:00.900,-0.0244,0.0154,1.0046,1.6708,-2.0676,-8.0566,25.9797,-1.4595,153.2513,,,,
05_S2,16/05/2023,16:21:01.000,0.0088,0.0806,1.0232,3.4409,-4.1122,-33.2947,25.9797,-1.4595,153.2513,Inactive,0,23.32,
05_S2,16/05/2023,16:21:01.100,-0.0166,-0.0381,1.0122,-3.9368,-3.5248,-157.7148,30.5043,-1.3136,154.5649,,,,
05_S2,16/05/2023,16:21:01.200,-0.0085,-0.0203,1.0022,-1.7548,-2.6779,-60.6613,36.6344,0.1460,154.2730,,,,
05_S2,16/05/2023,16:21:01.300,0.0061,0.0066,1.0076,1.0223,-2.1667,-17.0212,37.5101,-0.1460,154.8568,,,,
05_S2,16/05/2023,16:21:01.400,-0.0278,-0.0122,1.0105,2.5940,-0.2594,-46.9742,38.5318,0.8757,155.2946,,,,
05_S2,16/05/2023,16:21:01.500,0.0044,-0.0178,1.0046,1.5793,-0.3891,-15.6326,40.2832,-1.1676,152.9594,,,,
05_S2,16/05/2023,16:21:01.600,0.0100,0.0039,1.0105,3.5629,-0.9995,-8.5907,40.2832,-1.1676,152.9594,,,,
05_S2,16/05/2023,16:21:01.700,0.0117,0.0188,1.0034,4.3335,0.6027,-45.6009,42.0346,0.0000,154.1270,,,,
05_S2,16/05/2023,16:21:01.800,-0.0093,-0.0073,1.0132,-2.3117,-4.0894,-91.7969,45.8294,-1.7514,155.2946,,,,
05_S2,16/05/2023,16:21:01.900,-0.0063,-0.0022,1.0190,-2.8458,-3.5324,-69.7098,48.4566,-2.6272,153.5432,,,,
05_S2,16/05/2023,16:21:02.000,0.0278,-0.0298,1.0020,-4.6387,-2.5787,-61.3327,50.7919,-4.3786,152.9594,Inactive,0,23.34,
05_S2,16/05/2023,16:21:02.100,0.0303,-0.0432,1.0029,-4.8676,1.4801,-88.4476,50.7919,-4.3786,152.9594,,,,
05_S2,16/05/2023,16:21:02.200,0.0100,-0.0483,0.9924,-8.4534,-0.0458,-90.3473,56.3381,-7.2977,153.5432,,,,
05_S2,16/05/2023,16:21:02.300,0.0029,-0.0945,0.9954,-7.1716,-2.9144,-79.2084,58.9653,-12.5520,154.4189,,,,
05_S2,16/05/2023,16:21:02.400,0.0071,-0.0598,1.0405,-1.1063,1.5640,-35.8429,59.9869,-14.7413,153.9810,,,,
05_S2,16/05/2023,16:21:02.500,0.0686,-0.0686,1.0073,-15.8081,-22.4457,-29.1061,60.8627,-15.0332,153.1053,,,,
05_S2,16/05/2023,16:21:02.600,0.1287,-0.1018,1.0098,-16.8152,-19.6533,-40.8630,63.4898,-19.7037,153.1053,,,,
05_S2,16/05/2023,16:21:02.700,0.1826,-0.1011,0.9866,-26.3519,-12.8403,-40.4739,63.4898,-19.7037,153.1053,,,,
05_S2,16/05/2023,16:21:02.800,0.2139,-0.2004,0.9758,-20.5307,-2.0676,-93.0786,65.0953,-21.3092,151.7917,,,,
05_S2,16/05/2023,16:21:02.900,0.2263,-0.1724,0.9485,-3.7537,-8.4686,-18.9667,65.0953,-27.7312,151.4998,,,,
05_S2,16/05/2023,16:21:03.000,0.2869,-0.1863,0.9937,4.4022,-55.5344,20.2103,65.0953,-27.7312,150.9160,Inactive,0,23.34,
05_S2,16/05/2023,16:21:03.100,0.3955,-0.1892,0.9187,-1.2741,-81.7871,31.5094,64.6574,-29.3367,150.1863,,,,
05_S2,16/05/2023,16:21:03.200,0.4441,-0.2114,0.8623,8.3008,-54.4128,35.4919,64.9494,-29.3367,149.3105,,,,
05_S2,16/05/2023,16:21:03.300,0.4648,-0.2317,0.8511,14.1296,-26.1078,37.7579,64.9494,-29.3367,149.3105,,,,
05_S2,16/05/2023,16:21:03.400,0.5054,-0.2195,0.8354,24.0326,-19.5923,33.5236,65.6791,-29.7745,148.8727,,,,
05_S2,16/05/2023,16:21:03.500,0.5452,-0.2202,0.8345,30.4108,-28.3279,44.5175,64.2196,-27.4393,150.3322,,,,
05_S2,16/05/2023,16:21:03.600,0.6060,-0.2117,0.8242,39.9857,-48.2025,52.8946,63.4898,-27.2933,152.5215,,,,
05_S2,16/05/2023,16:21:03.700,0.6523,-0.1724,0.7729,60.1807,-62.9883,35.9116,59.9869,-28.4610,156.0244,,,,
05_S2,16/05/2023,16:21:03.800,0.7378,-0.0886,0.7539,73.0591,-67.7185,-3.1052,59.9869,-28.4610,156.0244,,,,
05_S2,16/05/2023,16:21:03.900,0.8416,0.0635,0.6895,84.6939,-73.4787,-47.4319,55.0245,-31.9638,158.0677,,,,
05_S2,16/05/2023,16:21:04.000,0.8342,0.2769,0.4524,74.8978,-81.0699,-110.5499,46.5592,-40.1372,157.7758,Inactive,0,23.33,
05_S2,16/05/2023,16:21:04.100,0.8147,0.5269,0.2458,71.2204,-143.5776,-107.9407,38.3858,-47.7268,153.9810,,,,
05_S2,16/05/2023,16:21:04.200,0.7578,0.6040,-0.1968,66.0248,-146.2631,-93.4219,30.0664,-54.0028,143.9102,,,,
05_S2,16/05/2023,16:21:04.300,0.6821,0.7524,-0.2888,61.5158,-152.8778,-79.4830,23.0607,-54.8786,131.3582,,,,
05_S2,16/05/2023,16:21:04.400,0.4114,0.7927,-0.4524,29.9759,-137.8479,-93.6661,23.0607,-54.8786,131.3582,,,,
05_S2,16/05/2023,16:21:04.500,0.2664,0.9746,-0.4558,-53.7796,-75.3860,-94.0933,15.0332,-51.8135,120.7036,,,,
05_S2,16/05/2023,16:21:04.600,-0.0908,0.8218,-0.4695,-17.9443,-43.3426,-173.8281,8.3194,-44.5158,120.9955,,,,
05_S2,16/05/2023,16:21:04.700,-0.2339,0.8672,-0.4490,40.1688,-67.0624,-86.5097,4.2327,-35.1748,116.6169,,,,
05_S2,16/05/2023,16:21:04.800,-0.3975,0.7686,-0.4939,55.2826,-56.4880,-68.0084,3.3569,-29.6286,112.2383,,,,
05_S2,16/05/2023,16:21:04.900,-0.5142,0.6965,-0.5286,46.1121,-33.8821,-59.7992,4.8165,-24.6662,109.0273,,,,
05_S2,16/05/2023,16:21:05.000,-0.6265,0.5532,-0.5042,-55.3741,13.8550,-130.8746,4.8165,-24.6662,109.0273,Inactive,0,23.34,
05_S2,16/05/2023,16:21:05.100,-0.6992,0.5735,-0.4285,-58.4564,1.6174,-93.5822,3.7948,-16.9306,113.8438,,,,
05_S2,16/05/2023,16:21:05.200,-0.7356,0.4976,-0.3530,-49.5377,9.7809,-85.4492,6.1301,-10.5087,117.0548,,,,
05_S2,16/05/2023,16:21:05.300,-0.7471,0.3262,-0.4875,-114.2883,80.0705,-149.7726,8.9032,-2.7731,120.7036,,,,
05_S2,16/05/2023,16:21:05.400,-0.7898,0.2603,-0.5706,-161.4532,122.4670,-132.0801,15.4711,4.6705,124.6444,,,,
05_S2,16/05/2023,16:21:05.500,-0.7661,0.3215,-0.5950,-126.2283,84.3964,-47.1420,15.4711,4.6705,124.6444,,,,
05_S2,16/05/2023,16:21:05.600,-0.6326,0.4436,-0.6028,-117.1494,63.4003,2.8152,16.4928,5.4003,125.0822,,,,
05_S2,16/05/2023,16:21:05.700,-0.5977,0.5500,-0.6106,-73.5550,61.8668,11.9247,16.2008,5.1084,126.2499,,,,
05_S2,16/05/2023,16:21:05.800,-0.5161,0.6360,-0.5779,-51.3840,28.1906,25.5966,15.4711,5.2543,124.6444,,,,
05_S2,16/05/2023,16:21:05.900,-0.4097,0.7192,-0.5710,-51.1780,34.2941,52.4826,12.5520,1.1676,124.9363,,,,
05_S2,16/05/2023,16:21:06.000,-0.2651,0.7981,-0.4897,-45.0363,33.9203,74.6460,7.5896,-1.1676,127.2715,Inactive,0,23.35,
05_S2,16/05/2023,16:21:06.100,-0.0952,0.9087,-0.4922,-40.0543,53.7491,111.6714,7.5896,-1.1676,127.2715,,,,
05_S2,16/05/2023,16:21:06.200,0.0601,0.9211,-0.4475,-20.9122,31.2576,98.0911,4.6705,-9.6329,127.2715,,,,
05_S2,16/05/2023,16:21:06.300,0.2148,0.8525,-0.3940,-9.0790,6.1569,46.8521,2.3353,-13.7196,127.5634,,,,
05_S2,16/05/2023,16:21:06.400,0.3086,0.9443,-0.4128,-16.9220,15.2740,75.7294,2.0434,-18.3902,126.9796,,,,
05_S2,16/05/2023,16:21:06.500,0.4341,0.8616,-0.3706,-17.2424,-10.1929,60.4095,1.6055,-22.6228,129.4608,,,,
05_S2,16/05/2023,16:21:06.600,0.4385,0.8179,-0.3923,27.4506,6.8207,47.9660,1.4595,-26.8555,126.9796,,,,
05_S2,16/05/2023,16:21:06.700,0.5273,0.7476,-0.4756,55.1987,-11.5433,46.2570,1.4595,-26.8555,126.9796,,,,
05_S2,16/05/2023,16:21:06.800,0.5486,0.6584,-0.4978,23.2239,-21.0342,37.8036,2.1893,-29.6286,123.0389,,,,
05_S2,16/05/2023,16:21:06.900,0.6440,0.5955,-0.5332,9.9869,-32.7454,95.6039,2.3353,-33.8612,122.3091,,,,
05_S2,16/05/2023,16:21:07.000,0.6731,0.4365,-0.6296,10.1624,-29.1595,92.6285,6.1301,-40.8670,121.1415,Inactive,0,23.33,
05_S2,16/05/2023,16:21:07.100,0.6704,0.3921,-0.7048,-0.4349,-71.5714,102.6535,11.0925,-47.2890,117.3467,,,,
05_S2,16/05/2023,16:21:07.200,0.5381,0.2815,-0.8584,-12.9929,-128.3035,70.6863,11.0925,-47.2890,117.3467,,,,
05_S2,16/05/2023,16:21:07.300,0.3623,0.2407,-0.8477,-5.6915,-176.7044,86.4334,13.8656,-47.4349,111.9464,,,,
05_S2,16/05/2023,16:21:07.400,0.1243,0.2378,-0.9648,-20.0958,-144.9509,55.2597,17.3685,-45.0997,103.7730,,,,
05_S2,16/05/2023,16:21:07.500,-0.0667,0.2312,-0.9590,-5.8212,-111.1374,19.9661,17.8063,-40.2832,98.9565,,,,
05_S2,16/05/2023,16:21:07.600,-0.1831,0.2700,-0.9448,-16.2888,-78.2776,20.7291,18.5361,-34.5910,95.8915,,,,
05_S2,16/05/2023,16:21:07.700,-0.3213,0.3262,-0.9265,-22.3312,-59.0363,14.7324,17.3685,-33.4234,96.4753,,,,
05_S2,16/05/2023,16:21:07.800,-0.4084,0.2883,-0.8765,5.5008,-65.8569,-8.5144,17.3685,-33.4234,96.4753,,,,
05_S2,16/05/2023,16:21:07.900,-0.4897,0.3140,-0.8169,5.1956,-55.5725,-28.5492,16.9306,-28.8988,94.8698,,,,
05_S2,16/05/2023,16:21:08.000,-0.5789,0.2776,-0.7444,-11.5891,-44.4183,-20.8206,17.6604,-23.4985,93.8482,Inactive,0,23.35,
05_S2,16/05/2023,16:21:08.100,-0.5713,0.3198,-0.6887,-58.6395,-28.7399,-46.0892,14.0115,-19.5578,96.6213,,,,
05_S2,16/05/2023,16:21:08.200,-0.5940,0.3403,-0.6816,-96.3516,14.5950,-65.1627,10.6546,-17.0766,100.2701,,,,
05_S2,16/05/2023,16:21:08.300,-0.6487,0.4829,-0.6533,-94.7571,19.1956,-33.9890,6.8598,-17.0766,106.4002,,,,
05_S2,16/05/2023,16:21:08.400,-0.6221,0.4990,-0.5229,-94.7876,16.2430,-37.3306,6.8598,-17.0766,106.4002,,,,
05_S2,16/05/2023,16:21:08.500,-0.6460,0.4980,-0.6580,-117.1036,74.1501,-69.7708,3.7948,-14.3035,112.9681,,,,
05_S2,16/05/2023,16:21:08.600,-0.5977,0.4980,-0.5789,-80.3528,78.9032,-84.5718,5.2543,-11.0925,119.3900,,,,
05_S2,16/05/2023,16:21:08.700,-0.6472,0.4814,-0.6016,-63.5986,63.5681,-77.9648,5.5462,-5.2543,119.9739,,,,
05_S2,16/05/2023,16:21:08.800,-0.5857,0.5195,-0.6064,-59.4406,55.9769,-38.5895,7.1517,-3.3569,122.4551,,,,
05_S2,16/05/2023,16:21:08.900,-0.5669,0.5432,-0.6067,-56.0532,61.2946,-19.8975,7.1517,-3.3569,122.4551,,,,
05_S2,16/05/2023,16:21:09.000,-0.4358,0.6208,-0.6826,-65.7883,96.7026,9.6054,9.6329,-2.9191,123.1848,Inactive,0,23.33,
05_S2,16/05/2023,16:21:09.100,-0.3474,0.6958,-0.6611,-57.2052,88.7070,0.5035,6.7139,-2.6272,123.1848,,,,
05_S2,16/05/2023,16:21:09.200,-0.2490,0.7322,-0.6409,-40.4205,90.2176,0.3357,7.0058,-3.2110,122.0172,,,,
05_S2,16/05/2023,16:21:09.300,-0.1526,0.7588,-0.6123,-28.7857,87.8754,7.3013,7.0058,-5.2543,120.8496,,,,
05_S2,16/05/2023,16:21:09.400,0.0078,0.7302,-0.5815,3.4256,78.5446,12.2910,6.1301,-6.4220,117.3467,,,,
05_S2,16/05/2023,16:21:09.500,0.0295,0.7969,-0.6697,3.5248,77.0645,11.5433,6.1301,-6.4220,117.3467,,,,
05_S2,16/05/2023,16:21:09.600,0.2024,0.7551,-0.6536,6.4926,65.8340,43.2053,6.1301,-8.7572,114.4276,,,,
05_S2,16/05/2023,16:21:09.700,0.4053,0.6853,-0.6436,19.2795,53.8254,106.4835,4.0867,-15.1792,110.9247,,,,
05_S2,16/05/2023,16:21:09.800,0.5574,0.5620,-0.6685,31.3339,52.9785,96.9543,5.5462,-24.2283,109.7571,,,,
05_S2,16/05/2023,16:21:09.900,0.6443,0.4834,-0.6482,23.4146,20.9274,99.7543,6.7139,-32.1098,107.1299,,,,
05_S2,16/05/2023,16:21:10.000,0.7180,0.3491,-0.6377,4.7607,0.9308,98.9990,6.7139,-32.1098,107.1299,Inactive,0,23.34,
05_S2,16/05/2023,16:21:10.100,0.7585,0.2205,-0.6768,-2.1744,-3.6545,92.0105,6.7139,-32.1098,107.1299,,,,
05_S2,16/05/2023,16:21:10.200,0.7507,0.1553,-0.6565,-23.0255,-30.5099,79.0329,12.2601,-42.9104,107.4218,,,,
05_S2,16/05/2023,16:21:10.300,0.7234,0.1279,-0.7246,-76.8204,-40.1535,58.2809,13.1358,-45.8294,108.5895,,,,
05_S2,16/05/2023,16:21:10.400,0.6809,0.1367,-0.7410,-109.8557,-62.2482,47.7905,12.4061,-46.5592,114.2817,,,,
05_S2,16/05/2023,16:21:10.500,0.6128,0.2466,-0.7612,-58.7692,-55.5573,66.6504,13.4277,-48.4566,113.8438,,,,
05_S2,16/05/2023,16:21:10.600,0.5496,0.2551,-0.8069,-38.5208,-64.0106,55.0537,13.4277,-48.4566,113.8438,,,,
05_S2,16/05/2023,16:21:10.700,0.4534,0.2510,-0.8684,-32.6385,-65.4449,26.7029,15.7630,-49.6242,111.5086,,,,
05_S2,16/05/2023,16:21:10.800,0.3604,0.3081,-0.9050,-36.3388,-82.7484,24.6201,15.3251,-48.3106,109.0273,,,,
05_S2,16/05/2023,16:21:10.900,0.2498,0.3555,-0.9131,-50.9720,-85.9604,23.4604,15.9089,-46.5592,107.5678,,,,
05_S2,16/05/2023,16:21:11.000,0.1270,0.4565,-0.9058,-58.3878,-81.4819,25.2457,14.4494,-45.0997,107.5678,Inactive,0,23.34,
05_S2,16/05/2023,16:21:11.100,0.0447,0.5713,-0.8135,-79.6661,-80.3833,12.5198,12.4061,-41.5968,106.9840,,,,
05_S2,16/05/2023,16:21:11.200,-0.0649,0.6670,-0.6985,-104.7897,-37.4756,-5.6534,12.4061,-41.5968,106.9840,,,,
05_S2,16/05/2023,16:21:11.300,-0.1448,0.8162,-0.6521,-43.2739,-41.0080,-44.4336,8.7572,-40.2832,110.6328,,,,
05_S2,16/05/2023,16:21:11.400,-0.2590,0.7903,-0.5652,-41.0995,-42.9382,-85.2127,4.6705,-35.0289,113.2600,,,,
05_S2,16/05/2023,16:21:11.500,-0.4106,0.7300,-0.4932,-24.6277,-39.0472,-84.5413,2.7731,-27.0014,113.9898,,,,
05_S2,16/05/2023,16:21:11.600,-0.5254,0.7073,-0.4639,-9.5596,-34.5230,-65.8035,2.0434,-21.6011,115.5953,,,,
05_S2,16/05/2023,16:21:11.700,-0.6294,0.6816,-0.4463,-20.7748,-5.1804,-47.1649,2.0434,-21.6011,115.5953,,,,
05_S2,16/05/2023,16:21:11.800,-0.6533,0.6548,-0.4229,-30.6702,5.7831,-36.3083,3.3569,-17.6604,116.0331,,,,
05_S2,16/05/2023,16:21:11.900,-0.7065,0.6372,-0.3892,-41.6641,2.8534,-38.0936,1.3136,-15.3251,118.6603,,,,
05_S2,16/05/2023,16:21:12.000,-0.7249,0.5999,-0.3181,-54.5883,23.3841,-48.9044,2.3353,-12.8439,122.6010,Inactive,0,23.32,
05_S2,16/05/2023,16:21:12.100,-0.6799,0.5476,-0.3145,-47.1573,64.4989,-53.8330,4.9624,-8.7572,123.7687,,,,
05_S2,16/05/2023,16:21:12.200,-0.6875,0.5571,-0.4292,-48.6298,92.4225,-32.7148,6.5679,-6.2760,125.0822,,,,
05_S2,16/05/2023,16:21:12.300,-0.6250,0.5698,-0.5515,-50.0946,109.1003,-24.0097,6.5679,-6.2760,125.0822,,,,
05_S2,16/05/2023,16:21:12.400,-0.5103,0.5901,-0.6562,-51.2314,114.5706,-44.0598,4.6705,-7.0058,124.6444,,,,
05_S2,16/05/2023,16:21:12.500,-0.4548,0.5776,-0.6375,-48.5077,110.2676,-52.4597,8.1734,-2.9191,122.0172,,,,
05_S2,16/05/2023,16:21:12.600,-0.3892,0.6147,-0.6997,-51.7654,120.7504,-21.7056,10.0708,-0.1460,119.8279,,,,
05_S2,16/05/2023,16:21:12.700,-0.3074,0.6362,-0.7183,-37.7960,88.6841,-6.1874,9.3410,-1.4595,116.1791,,,,
05_S2,16/05/2023,16:21:12.800,-0.2317,0.6755,-0.7319,-17.4179,46.2036,-0.6561,10.5087,-2.9191,116.7629,,,,
05_S2,16/05/2023,16:21:12.900,-0.1487,0.7092,-0.7239,-7.1487,29.7928,13.5422,10.5087,-2.9191,116.7629,,,,
05_S2,16/05/2023,16:21:13.000,-0.0881,0.7307,-0.7090,-0.8774,38.2843,37.5671,7.4436,-3.6488,114.8655,Inactive,0,23.27,
05_S2,16/05/2023,16:21:13.100,0.0647,0.7102,-0.6848,-2.3499,43.9301,49.3088,6.2760,-7.1517,113.6979,,,,
05_S2,16/05/2023,16:21:13.200,0.1826,0.7090,-0.7000,-7.2937,56.8771,67.5125,5.1084,-13.8656,112.5302,,,,
05_S2,16/05/2023,16:21:13.300,0.2981,0.6619,-0.6841,5.6381,35.8887,67.4362,4.0867,-19.2659,110.9247,,,,
05_S2,16/05/2023,16:21:13.400,0.4490,0.6035,-0.7295,20.6680,23.7427,76.9501,4.0867,-19.2659,110.9247,,,,
05_S2,16/05/2023,16:21:13.500,0.5369,0.5271,-0.6926,14.5340,-2.1439,69.4656,3.7948,-26.2716,110.3409,,,,
05_S2,16/05/2023,16:21:13.600,0.5967,0.4717,-0.7056,14.3738,7.1487,51.5976,4.6705,-28.8988,109.7571,,,,
05_S2,16/05/2023,16:21:13.700,0.5642,0.4912,-0.7153,11.0779,10.7651,37.3077,6.2760,-33.1315,108.7354,,,,
05_S2,16/05/2023,16:21:13.800,0.6025,0.3955,-0.7312,-1.4801,-5.9052,32.3029,7.4436,-35.4667,109.3192,,,,
05_S2,16/05/2023,16:21:13.900,0.6152,0.3203,-0.6887,-13.7863,-29.3579,48.8052,7.1517,-36.9263,109.6112,,,,
05_S2,16/05/2023,16:21:14.000,0.6357,0.2747,-0.6829,-3.9825,-20.9732,52.9938,7.1517,-36.9263,109.6112,Inactive,0,23.32,
05_S2,16/05/2023,16:21:14.100,0.6807,0.2117,-0.7473,8.4000,0.0534,87.9440,9.4870,-41.8887,109.9031,,,,
05_S2,16/05/2023,16:21:14.200,0.6807,0.1033,-0.7402,-17.3035,-6.0501,103.3401,14.3035,-45.5375,109.1733,,,,
05_S2,16/05/2023,16:21:14.300,0.6372,0.1089,-0.8118,-63.7741,-16.5253,96.1838,16.9306,-50.7919,110.9247,,,,
05_S2,16/05/2023,16:21:14.400,0.5632,0.1392,-0.7927,-78.6743,-88.6307,38.3301,18.0982,-50.7919,109.7571,,,,
05_S2,16/05/2023,16:21:14.500,0.4180,0.2363,-0.8850,-69.0079,-91.6290,31.1356,16.7847,-47.4349,107.5678,,,,
05_S2,16/05/2023,16:21:14.600,0.3252,0.3311,-0.8652,-87.1658,-85.6628,48.4161,16.7847,-47.4349,107.5678,,,,
05_S2,16/05/2023,16:21:14.700,0.2529,0.4165,-0.8796,-80.6961,-61.3480,41.3589,16.6387,-47.2890,107.4218,,,,
05_S2,16/05/2023,16:21:14.800,0.1846,0.5364,-0.8369,-84.7397,-66.6122,20.7443,14.5954,-48.7485,110.3409,,,,
05_S2,16/05/2023,16:21:14.900,0.0791,0.6628,-0.7869,-66.3910,-63.7665,-5.4932,13.4277,-43.7861,108.8814,,,,
05_S2,16/05/2023,16:21:15.000,-0.0283,0.7908,-0.6997,-79.9942,-45.1660,-25.9857,9.7789,-42.7644,110.7788,Inactive,0,23.3,
05_S2,16/05/2023,16:21:15.100,-0.1277,0.7957,-0.6321,-69.0994,-20.3018,-62.9425,9.7789,-42.7644,110.7788,,,,
05_S2,16/05/2023,16:21:15.200,-0.2136,0.8325,-0.4910,-57.9147,-26.5808,-61.9354,5.2543,-36.1965,115.3033,,,,
05_S2,16/05/2023,16:21:15.300,-0.3101,0.9070,-0.3765,-65.8417,-11.9324,-54.5502,2.3353,-32.6936,118.5143,,,,
05_S2,16/05/2023,16:21:15.400,-0.3792,0.9109,-0.2771,-52.1469,7.0114,-49.4080,0.7298,-29.0448,123.6227,,,,
05_S2,16/05/2023,16:21:15.500,-0.4197,0.8740,-0.2690,-44.4565,39.4211,-33.5007,1.1676,-26.5636,126.6877,,,,
05_S2,16/05/2023,16:21:15.600,-0.4226,0.8750,-0.2932,-28.3127,66.1392,-30.4108,1.0217,-24.9581,130.6285,,,,
05_S2,16/05/2023,16:21:15.700,-0.4246,0.8718,-0.2737,-35.5835,55.7632,-22.0261,1.0217,-24.9581,130.6285,,,,
05_S2,16/05/2023,16:21:15.800,-0.4131,0.8601,-0.2229,-46.1121,43.0603,3.8681,2.1893,-21.1633,133.5475,,,,
05_S2,16/05/2023,16:21:15.900,-0.3877,0.9155,-0.2229,-37.6740,39.2456,6.1646,2.6272,-21.8930,135.7368,,,,
05_S2,16/05/2023,16:21:16.000,-0.3435,0.9080,-0.1804,-29.9301,46.1807,5.7068,3.2110,-20.4335,137.1964,Inactive,0,23.33,
05_S2,16/05/2023,16:21:16.100,-0.3301,0.9575,-0.1375,-57.5027,46.0205,10.0479,5.2543,-19.8497,140.4074,,,,
05_S2,16/05/2023,16:21:16.200,-0.3123,0.9717,-0.0251,-65.4221,48.1033,33.3862,6.2760,-19.9956,146.0996,,,,
05_S2,16/05/2023,16:21:16.300,-0.1624,0.9282,0.0986,-63.3850,44.5404,75.7217,6.2760,-19.9956,146.0996,,,,
05_S2,16/05/2023,16:21:16.400,-0.0249,1.0164,0.1423,-46.8216,38.7878,95.3293,10.5087,-23.6445,149.4565,,,,
05_S2,16/05/2023,16:21:16.500,0.1255,1.0144,0.1814,-29.2282,5.5084,70.2362,11.5303,-27.8771,151.9377,,,,
05_S2,16/05/2023,16:21:16.600,0.2273,1.0132,0.2241,-30.9067,8.6823,63.9114,13.7196,-30.3583,152.9594,,,,
05_S2,16/05/2023,16:21:16.700,0.3201,0.8950,0.3513,-57.7164,17.8375,68.6874,18.8280,-32.5477,157.4839,,,,
05_S2,16/05/2023,16:21:16.800,0.3889,0.8083,0.4363,-27.9770,12.9776,61.7676,18.8280,-32.5477,157.4839,,,,
05_S2,16/05/2023,16:21:16.900,0.4983,0.8105,0.3950,4.8141,-10.5057,54.5502,22.0390,-34.8829,157.7758,,,,
05_S2,16/05/2023,16:21:17.000,0.5598,0.8008,0.3855,-22.4380,-38.4445,10.5286,21.6011,-36.1965,157.9218,Inactive,0,23.34,
