TagID,Date,Time,accX,accY,accZ,magX,magY,magZ,Temp. (?C),Metadata
1_S5,09/05/2023,10:34:53.000,0.000,-0.125,1.000,-388.5,-186.0,966.0,22,
1_S5,09/05/2023,10:34:53.100,0.000,-0.063,1.000,,,,,
1_S5,09/05/2023,10:34:53.200,0.000,0.000,1.000,,,,,
1_S5,09/05/2023,10:34:53.300,0.000,-0.063,1.000,,,,,
1_S5,09/05/2023,10:34:53.400,0.000,-0.125,1.000,,,,,
1_S5,09/05/2023,10:34:53.500,0.000,-0.063,1.000,-403.5,-168.0,961.5,,
1_S5,09/05/2023,10:34:53.600,0.000,-0.125,0.938,,,,,
1_S5,09/05/2023,10:34:53.700,0.000,-0.125,1.000,,,,,
1_S5,09/05/2023,10:34:53.800,0.000,-0.125,1.000,,,,,
1_S5,09/05/2023,10:34:53.900,0.000,-0.125,0.938,,,,,
1_S5,09/05/2023,10:34:54.000,0.000,-0.125,1.000,-406.5,-175.5,978.0,,
1_S5,09/05/2023,10:34:54.100,0.000,-0.063,1.000,,,,,
1_S5,09/05/2023,10:34:54.200,0.000,-0.063,1.063,,,,,
1_S5,09/05/2023,10:34:54.300,0.000,-0.125,0.938,,,,,
1_S5,09/05/2023,10:34:54.400,0.000,-0.125,1.000,,,,,
1_S5,09/05/2023,10:34:54.500,0.000,-0.063,1.000,-400.5,-174.0,981.0,,
1_S5,09/05/2023,10:34:54.600,0.000,0.000,1.000,,,,,
1_S5,09/05/2023,10:34:54.700,0.000,0.000,0.938,,,,,
1_S5,09/05/2023,10:34:54.800,0.000,-0.063,1.000,,,,,
1_S5,09/05/2023,10:34:54.900,0.000,-0.063,1.000,,,,,
1_S5,09/05/2023,10:34:55.000,0.063,-0.063,1.000,-411.0,-178.5,963.0,,
1_S5,09/05/2023,10:34:55.100,0.000,-0.125,0.938,,,,,
1_S5,09/05/2023,10:34:55.200,-0.063,-0.063,1.000,,,,,
1_S5,09/05/2023,10:34:55.300,0.000,-0.125,1.000,,,,,
1_S5,09/05/2023,10:34:55.400,0.000,-0.063,1.000,,,,,
1_S5,09/05/2023,10:34:55.500,0.000,-0.063,0.938,-417.0,-189.0,961.5,,
1_S5,09/05/2023,10:34:55.600,0.000,-0.125,1.000,,,,,
1_S5,09/05/2023,10:34:55.700,0.000,-0.125,1.000,,,,,
1_S5,09/05/2023,10:34:55.800,0.000,-0.125,0.938,,,,,
1_S5,09/05/2023,10:34:55.900,0.000,-0.125,1.000,,,,,
1_S5,09/05/2023,10:34:56.000,0.000,-0.125,1.000,-414.0,-181.5,955.5,,
1_S5,09/05/2023,10:34:56.100,0.000,-0.125,1.000,,,,,
1_S5,09/05/2023,10:34:56.200,0.000,-0.063,1.000,,,,,
1_S5,09/05/2023,10:34:56.300,0.000,-0.063,1.000,,,,,
1_S5,09/05/2023,10:34:56.400,0.000,-0.125,1.000,,,,,
1_S5,09/05/2023,10:34:56.500,0.000,-0.063,1.000,-412.5,-193.5,964.5,,
1_S5,09/05/2023,10:34:56.600,0.000,-0.063,1.000,,,,,
1_S5,09/05/2023,10:34:56.700,0.000,-0.125,0.938,,,,,
1_S5,09/05/2023,10:34:56.800,0.000,-0.125,1.000,,,,,
1_S5,09/05/2023,10:34:56.900,0.000,-0.125,1.000,,,,,
1_S5,09/05/2023,10:34:57.000,0.000,-0.125,0.938,-397.5,-175.5,949.5,,
1_S5,09/05/2023,10:34:57.100,0.000,-0.069,1.000,,,,,
1_S5,09/05/2023,10:34:57.200,0.000,-0.125,1.000,,,,,
1_S5,09/05/2023,10:34:57.300,0.000,-0.125,1.000,,,,,
1_S5,09/05/2023,10:34:57.400,0.000,-0.100,1.000,,,,,
1_S5,09/05/2023,10:34:57.500,0.000,-0.063,1.000,-399.0,-184.5,972.0,,
1_S5,09/05/2023,10:34:57.600,0.000,-0.100,1.000,,,,,
1_S5,09/05/2023,10:34:57.700,0.000,-0.081,1.000,,,,,
1_S5,09/05/2023,10:34:57.800,0.000,-0.063,1.000,,,,,
1_S5,09/05/2023,10:34:57.900,0.000,-0.063,0.938,,,,,
1_S5,09/05/2023,10:34:58.000,0.000,-0.125,1.000,-397.5,-186.0,946.5,22,
1_S5,09/05/2023,10:34:58.100,0.000,-0.125,1.000,,,,,
1_S5,09/05/2023,10:34:58.200,0.000,-0.125,1.000,,,,,
1_S5,09/05/2023,10:34:58.300,0.000,-0.125,1.000,,,,,
1_S5,09/05/2023,10:34:58.400,0.000,-0.125,0.938,,,,,
1_S5,09/05/2023,10:34:58.500,0.000,-0.063,0.938,-406.5,-174.0,963.0,,
1_S5,09/05/2023,10:34:58.600,0.000,0.000,1.000,,,,,
1_S5,09/05/2023,10:34:58.700,0.000,-0.063,1.000,,,,,
1_S5,09/05/2023,10:34:58.800,0.000,-0.063,0.938,,,,,
1_S5,09/05/2023,10:34:58.900,0.000,-0.063,1.000,,,,,
1_S5,09/05/2023,10:34:59.000,0.000,0.000,1.000,-408.0,-201.0,963.0,,
1_S5,09/05/2023,10:34:59.100,0.000,-0.063,1.000,,,,,
1_S5,09/05/2023,10:34:59.200,0.000,-0.125,1.000,,,,,
1_S5,09/05/2023,10:34:59.300,0.000,-0.063,1.000,,,,,
1_S5,09/05/2023,10:34:59.400,0.000,-0.063,0.938,,,,,
1_S5,09/05/2023,10:34:59.500,0.000,-0.063,1.000,-402.0,-193.5,946.5,,
1_S5,09/05/2023,10:34:59.600,0.000,-0.063,0.938,,,,,
1_S5,09/05/2023,10:34:59.700,0.000,-0.063,1.000,,,,,
1_S5,09/05/2023,10:34:59.800,0.000,-0.063,1.000,,,,,
1_S5,09/05/2023,10:34:59.900,0.000,-0.125,0.938,,,,,
1_S5,09/05/2023,10:35:00.000,0.000,-0.063,1.000,-406.5,-165.0,951.0,,
1_S5,09/05/2023,10:35:00.100,0.000,-0.063,1.000,,,,,
1_S5,09/05/2023,10:35:00.200,0.000,-0.063,1.000,,,,,
1_S5,09/05/2023,10:35:00.300,0.000,0.000,1.000,,,,,
1_S5,09/05/2023,10:35:00.400,0.000,-0.063,1.000,,,,,
1_S5,09/05/2023,10:35:00.500,0.000,-0.063,0.938,-387.0,-169.5,976.5,,
1_S5,09/05/2023,10:35:00.600,0.000,-0.063,1.000,,,,,
1_S5,09/05/2023,10:35:00.700,0.000,-0.063,1.000,,,,,
1_S5,09/05/2023,10:35:00.800,-0.063,-0.063,1.000,,,,,
1_S5,09/05/2023,10:35:00.900,0.000,-0.063,0.938,,,,,
1_S5,09/05/2023,10:35:01.000,0.000,-0.063,1.000,-411.0,-187.5,954.0,,
1_S5,09/05/2023,10:35:01.100,0.000,-0.063,1.000,,,,,
1_S5,09/05/2023,10:35:01.200,0.000,-0.125,1.000,,,,,
1_S5,09/05/2023,10:35:01.300,0.000,-0.063,1.000,,,,,
1_S5,09/05/2023,10:35:01.400,0.000,-0.125,1.000,,,,,
1_S5,09/05/2023,10:35:01.500,0.000,-0.063,1.000,-409.5,-198.0,952.5,,
1_S5,09/05/2023,10:35:01.600,0.000,-0.063,1.000,,,,,
1_S5,09/05/2023,10:35:01.700,0.000,-0.063,1.000,,,,,
1_S5,09/05/2023,10:35:01.800,0.000,-0.063,1.000,,,,,
1_S5,09/05/2023,10:35:01.900,0.000,-0.125,1.000,,,,,
1_S5,09/05/2023,10:35:02.000,0.000,-0.125,1.000,-411.0,-181.5,966.0,,
1_S5,09/05/2023,10:35:02.100,0.000,-0.125,1.000,,,,,
1_S5,09/05/2023,10:35:02.200,0.000,-0.113,1.000,,,,,
1_S5,09/05/2023,10:35:02.300,0.000,-0.081,1.000,,,,,
1_S5,09/05/2023,10:35:02.400,0.000,-0.100,0.975,,,,,
1_S5,09/05/2023,10:35:02.500,0.000,-0.063,0.969,-405.0,-180.0,949.5,,
1_S5,09/05/2023,10:35:02.600,0.000,-0.100,0.963,,,,,
1_S5,09/05/2023,10:35:02.700,0.000,-0.081,0.938,,,,,
1_S5,09/05/2023,10:35:02.800,0.000,-0.113,0.938,,,,,
1_S5,09/05/2023,10:35:02.900,0.000,0.000,1.063,,,,,
1_S5,09/05/2023,10:35:03.000,0.000,-0.125,1.000,-403.5,-181.5,957.0,22,
1_S5,09/05/2023,10:35:03.100,0.000,-0.063,1.000,,,,,
1_S5,09/05/2023,10:35:03.200,0.000,-0.063,1.000,,,,,
1_S5,09/05/2023,10:35:03.300,0.000,0.000,0.938,,,,,
1_S5,09/05/2023,10:35:03.400,0.000,-0.125,1.000,,,,,
1_S5,09/05/2023,10:35:03.500,0.000,-0.125,1.000,-411.0,-165.0,967.5,,
1_S5,09/05/2023,10:35:03.600,0.063,-0.125,0.938,,,,,
1_S5,09/05/2023,10:35:03.700,0.000,-0.063,1.000,,,,,
1_S5,09/05/2023,10:35:03.800,0.000,-0.063,1.000,,,,,
1_S5,09/05/2023,10:35:03.900,0.000,-0.125,0.938,,,,,
1_S5,09/05/2023,10:35:04.000,0.000,-0.125,1.000,-396.0,-165.0,964.5,,
1_S5,09/05/2023,10:35:04.100,0.000,-0.063,1.063,,,,,
1_S5,09/05/2023,10:35:04.200,0.000,-0.125,1.000,,,,,
1_S5,09/05/2023,10:35:04.300,0.000,-0.063,1.000,,,,,
1_S5,09/05/2023,10:35:04.400,0.000,-0.125,1.000,,,,,
1_S5,09/05/2023,10:35:04.500,0.000,0.000,0.938,-393.0,-177.0,958.5,,
1_S5,09/05/2023,10:35:04.600,0.000,-0.063,0.938,,,,,
1_S5,09/05/2023,10:35:04.700,0.000,-0.063,0.938,,,,,
1_S5,09/05/2023,10:35:04.800,0.000,-0.125,0.938,,,,,
1_S5,09/05/2023,10:35:04.900,0.000,-0.063,1.000,,,,,
1_S5,09/05/2023,10:35:05.000,0.000,-0.063,1.000,-412.5,-183.0,945.0,,
1_S5,09/05/2023,10:35:05.100,0.000,-0.125,0.938,,,,,
1_S5,09/05/2023,10:35:05.200,-0.063,0.000,1.000,,,,,
1_S5,09/05/2023,10:35:05.300,0.000,-0.125,1.000,,,,,
1_S5,09/05/2023,10:35:05.400,0.000,-0.125,1.000,,,,,
1_S5,09/05/2023,10:35:05.500,0.000,-0.125,0.938,-400.5,-178.5,966.0,,
1_S5,09/05/2023,10:35:05.600,0.000,-0.063,1.000,,,,,
1_S5,09/05/2023,10:35:05.700,0.000,-0.125,0.938,,,,,
1_S5,09/05/2023,10:35:05.800,0.000,-0.063,0.938,,,,,
1_S5,09/05/2023,10:35:05.900,0.000,-0.125,1.000,,,,,
1_S5,09/05/2023,10:35:06.000,0.000,0.000,0.938,-409.5,-187.5,939.0,,
1_S5,09/05/2023,10:35:06.100,0.000,-0.063,1.000,,,,,
1_S5,09/05/2023,10:35:06.200,0.000,-0.063,1.000,,,,,
1_S5,09/05/2023,10:35:06.300,0.000,-0.063,1.000,,,,,
1_S5,09/05/2023,10:35:06.400,0.000,0.000,1.000,,,,,
1_S5,09/05/2023,10:35:06.500,0.000,0.000,1.000,-402.0,-159.0,957.0,,
1_S5,09/05/2023,10:35:06.600,0.000,0.000,1.000,,,,,
1_S5,09/05/2023,10:35:06.700,0.000,-0.063,1.000,,,,,
1_S5,09/05/2023,10:35:06.800,0.000,-0.125,0.938,,,,,
1_S5,09/05/2023,10:35:06.900,0.000,-0.063,1.000,,,,,
1_S5,09/05/2023,10:35:07.000,0.000,-0.063,1.000,-402.0,-178.5,955.5,,
1_S5,09/05/2023,10:35:07.100,-0.056,-0.063,0.944,,,,,
1_S5,09/05/2023,10:35:07.200,0.000,-0.063,1.000,,,,,
1_S5,09/05/2023,10:35:07.300,0.000,-0.063,0.982,,,,,
1_S5,09/05/2023,10:35:07.400,0.000,-0.088,0.938,,,,,
1_S5,09/05/2023,10:35:07.500,0.000,-0.094,0.969,-433.5,-183.0,970.5,,
1_S5,09/05/2023,10:35:07.600,0.000,-0.100,1.038,,,,,
1_S5,09/05/2023,10:35:07.700,0.000,-0.125,1.019,,,,,
1_S5,09/05/2023,10:35:07.800,0.000,-0.075,0.950,,,,,
1_S5,09/05/2023,10:35:07.900,0.000,-0.125,1.000,,,,,
1_S5,09/05/2023,10:35:08.000,0.000,-0.063,1.000,-412.5,-189.0,954.0,22,
1_S5,09/05/2023,10:35:08.100,0.000,-0.063,1.000,,,,,
1_S5,09/05/2023,10:35:08.200,0.000,-0.063,1.000,,,,,
1_S5,09/05/2023,10:35:08.300,0.000,-0.063,1.000,,,,,
1_S5,09/05/2023,10:35:08.400,-0.063,-0.063,1.000,,,,,
1_S5,09/05/2023,10:35:08.500,0.000,-0.063,1.000,-402.0,-178.5,949.5,,
1_S5,09/05/2023,10:35:08.600,0.000,-0.063,1.000,,,,,
1_S5,09/05/2023,10:35:08.700,0.000,-0.063,1.000,,,,,
1_S5,09/05/2023,10:35:08.800,0.000,-0.063,1.000,,,,,
1_S5,09/05/2023,10:35:08.900,0.000,-0.125,1.000,,,,,
1_S5,09/05/2023,10:35:09.000,0.000,-0.063,1.000,-427.5,-193.5,963.0,,
1_S5,09/05/2023,10:35:09.100,0.000,-0.063,1.000,,,,,
1_S5,09/05/2023,10:35:09.200,0.000,-0.125,0.938,,,,,
1_S5,09/05/2023,10:35:09.300,0.000,-0.125,1.000,,,,,
1_S5,09/05/2023,10:35:09.400,0.000,-0.125,1.000,,,,,
1_S5,09/05/2023,10:35:09.500,0.000,-0.063,1.000,-390.0,-198.0,954.0,,
1_S5,09/05/2023,10:35:09.600,-0.063,-0.125,1.000,,,,,
1_S5,09/05/2023,10:35:09.700,0.000,-0.063,1.000,,,,,
1_S5,09/05/2023,10:35:09.800,0.000,-0.125,1.000,,,,,
1_S5,09/05/2023,10:35:09.900,0.000,-0.125,1.000,,,,,
1_S5,09/05/2023,10:35:10.000,0.000,-0.125,1.000,-411.0,-175.5,960.0,,
1_S5,09/05/2023,10:35:10.100,0.000,-0.063,1.000,,,,,
1_S5,09/05/2023,10:35:10.200,0.000,-0.063,1.000,,,,,
1_S5,09/05/2023,10:35:10.300,0.000,-0.125,1.000,,,,,
1_S5,09/05/2023,10:35:10.400,0.000,-0.125,0.938,,,,,
1_S5,09/05/2023,10:35:10.500,0.000,-0.063,1.000,-406.5,-172.5,948.0,,
1_S5,09/05/2023,10:35:10.600,0.000,-0.063,1.000,,,,,
1_S5,09/05/2023,10:35:10.700,0.000,-0.125,1.000,,,,,
1_S5,09/05/2023,10:35:10.800,0.000,-0.125,1.063,,,,,
1_S5,09/05/2023,10:35:10.900,0.000,-0.063,1.000,,,,,
1_S5,09/05/2023,10:35:11.000,0.000,-0.125,1.000,-397.5,-172.5,957.0,,
1_S5,09/05/2023,10:35:11.100,-0.006,-0.119,1.000,,,,,
1_S5,09/05/2023,10:35:11.200,-0.050,-0.075,1.000,,,,,
1_S5,09/05/2023,10:35:11.300,0.000,-0.106,1.000,,,,,
1_S5,09/05/2023,10:35:11.400,0.000,-0.063,1.000,,,,,
1_S5,09/05/2023,10:35:11.500,0.000,-0.063,1.000,-423.0,-190.5,954.0,,
1_S5,09/05/2023,10:35:11.600,0.000,-0.100,1.000,,,,,
1_S5,09/05/2023,10:35:11.700,0.000,-0.125,1.000,,,,,
1_S5,09/05/2023,10:35:11.800,0.000,-0.125,0.950,,,,,
1_S5,09/05/2023,10:35:11.900,0.000,-0.125,1.000,,,,,
1_S5,09/05/2023,10:35:12.000,-0.063,-0.125,1.000,-399.0,-169.5,930.0,,
1_S5,09/05/2023,10:35:12.100,0.000,-0.063,1.000,,,,,
1_S5,09/05/2023,10:35:12.200,0.000,0.000,0.938,,,,,
1_S5,09/05/2023,10:35:12.300,0.000,-0.063,1.000,,,,,
1_S5,09/05/2023,10:35:12.400,0.000,-0.063,1.000,,,,,
1_S5,09/05/2023,10:35:12.500,0.000,-0.125,0.938,-412.5,-181.5,949.5,,
1_S5,09/05/2023,10:35:12.600,0.000,0.000,1.000,,,,,
1_S5,09/05/2023,10:35:12.700,0.000,-0.063,1.000,,,,,
1_S5,09/05/2023,10:35:12.800,0.000,-0.063,1.000,,,,,
1_S5,09/05/2023,10:35:12.900,0.000,-0.125,1.000,,,,,
1_S5,09/05/2023,10:35:13.000,0.000,-0.125,1.000,-415.5,-189.0,948.0,22,
1_S5,09/05/2023,10:35:13.100,0.000,-0.063,1.000,,,,,
1_S5,09/05/2023,10:35:13.200,0.000,-0.125,0.938,,,,,
1_S5,09/05/2023,10:35:13.300,0.000,-0.063,1.000,,,,,
1_S5,09/05/2023,10:35:13.400,0.000,0.000,0.938,,,,,
1_S5,09/05/2023,10:35:13.500,0.000,-0.125,1.000,-417.0,-166.5,960.0,,
1_S5,09/05/2023,10:35:13.600,0.000,-0.063,0.938,,,,,
1_S5,09/05/2023,10:35:13.700,0.000,-0.125,1.000,,,,,
1_S5,09/05/2023,10:35:13.800,0.000,-0.063,0.938,,,,,
1_S5,09/05/2023,10:35:13.900,0.000,-0.063,1.000,,,,,
1_S5,09/05/2023,10:35:14.000,0.000,0.000,1.000,-403.5,-175.5,954.0,,
1_S5,09/05/2023,10:35:14.100,0.000,-0.063,0.938,,,,,
1_S5,09/05/2023,10:35:14.200,0.000,-0.063,1.000,,,,,
1_S5,09/05/2023,10:35:14.300,0.000,-0.063,1.000,,,,,
1_S5,09/05/2023,10:35:14.400,0.000,-0.125,1.000,,,,,
1_S5,09/05/2023,10:35:14.500,0.000,-0.125,1.000,-402.0,-177.0,970.5,,
1_S5,09/05/2023,10:35:14.600,0.000,-0.063,1.000,,,,,
1_S5,09/05/2023,10:35:14.700,0.000,-0.063,1.000,,,,,
1_S5,09/05/2023,10:35:14.800,0.000,-0.125,1.000,,,,,
1_S5,09/05/2023,10:35:14.900,0.000,-0.125,1.000,,,,,
1_S5,09/05/2023,10:35:15.000,0.000,-0.063,1.000,-406.5,-183.0,954.0,,
1_S5,09/05/2023,10:35:15.100,0.000,-0.125,1.000,,,,,
1_S5,09/05/2023,10:35:15.200,0.000,-0.125,1.000,,,,,
1_S5,09/05/2023,10:35:15.300,0.000,-0.063,1.000,,,,,
1_S5,09/05/2023,10:35:15.400,0.000,-0.063,1.000,,,,,
1_S5,09/05/2023,10:35:15.500,0.000,-0.063,0.938,-402.0,-177.0,952.5,,
1_S5,09/05/2023,10:35:15.600,0.000,-0.063,1.000,,,,,
1_S5,09/05/2023,10:35:15.700,0.000,-0.063,0.938,,,,,
1_S5,09/05/2023,10:35:15.800,0.000,-0.063,1.000,,,,,
1_S5,09/05/2023,10:35:15.900,0.000,-0.063,1.000,,,,,
1_S5,09/05/2023,10:35:16.000,0.000,-0.125,1.000,-411.0,-187.5,948.0,,
1_S5,09/05/2023,10:35:16.100,0.000,-0.069,1.000,,,,,
1_S5,09/05/2023,10:35:16.200,0.000,-0.113,1.000,,,,,
1_S5,09/05/2023,10:35:16.300,0.000,-0.063,1.000,,,,,
1_S5,09/05/2023,10:35:16.400,-0.025,-0.063,1.000,,,,,
1_S5,09/05/2023,10:35:16.500,-0.031,-0.063,1.000,-399.0,-168.0,964.5,,
1_S5,09/05/2023,10:35:16.600,0.000,-0.100,1.038,,,,,
1_S5,09/05/2023,10:35:16.700,0.000,-0.081,0.975,,,,,
1_S5,09/05/2023,10:35:16.800,0.000,-0.063,0.988,,,,,
1_S5,09/05/2023,10:35:16.900,0.000,-0.125,1.063,,,,,
1_S5,09/05/2023,10:35:17.000,0.000,-0.063,1.000,-414.0,-177.0,946.5,,
1_S5,09/05/2023,10:35:17.100,0.000,-0.063,1.000,,,,,
1_S5,09/05/2023,10:35:17.200,0.000,-0.125,1.000,,,,,
1_S5,09/05/2023,10:35:17.300,0.000,-0.125,1.000,,,,,
1_S5,09/05/2023,10:35:17.400,0.000,-0.125,1.000,,,,,
1_S5,09/05/2023,10:35:17.500,0.000,-0.125,1.000,-388.5,-166.5,951.0,,
1_S5,09/05/2023,10:35:17.600,0.000,-0.063,1.000,,,,,
1_S5,09/05/2023,10:35:17.700,0.000,0.000,1.000,,,,,
1_S5,09/05/2023,10:35:17.800,0.000,-0.125,1.000,,,,,
1_S5,09/05/2023,10:35:17.900,0.000,-0.063,1.000,,,,,
1_S5,09/05/2023,10:35:18.000,0.000,-0.125,0.938,-396.0,-192.0,964.5,22,
1_S5,09/05/2023,10:35:18.100,0.000,0.000,1.000,,,,,
1_S5,09/05/2023,10:35:18.200,0.000,-0.063,1.000,,,,,
1_S5,09/05/2023,10:35:18.300,0.000,-0.063,1.000,,,,,
1_S5,09/05/2023,10:35:18.400,0.000,-0.063,1.000,,,,,
1_S5,09/05/2023,10:35:18.500,0.000,-0.063,1.000,-406.5,-162.0,958.5,,
1_S5,09/05/2023,10:35:18.600,0.000,-0.125,1.000,,,,,
1_S5,09/05/2023,10:35:18.700,0.000,-0.063,0.938,,,,,
1_S5,09/05/2023,10:35:18.800,0.000,-0.063,1.000,,,,,
1_S5,09/05/2023,10:35:18.900,0.000,-0.063,1.000,,,,,
1_S5,09/05/2023,10:35:19.000,0.000,-0.063,1.000,-415.5,-175.5,958.5,,
1_S5,09/05/2023,10:35:19.100,-0.063,-0.063,1.000,,,,,
1_S5,09/05/2023,10:35:19.200,0.000,-0.125,1.000,,,,,
1_S5,09/05/2023,10:35:19.300,0.000,-0.063,0.938,,,,,
1_S5,09/05/2023,10:35:19.400,0.000,0.000,1.000,,,,,
1_S5,09/05/2023,10:35:19.500,0.000,-0.125,1.000,-399.0,-174.0,961.5,,
1_S5,09/05/2023,10:35:19.600,0.063,-0.125,1.000,,,,,
1_S5,09/05/2023,10:35:19.700,0.000,-0.063,1.000,,,,,
1_S5,09/05/2023,10:35:19.800,0.000,-0.125,0.938,,,,,
1_S5,09/05/2023,10:35:19.900,0.000,-0.063,0.938,,,,,
1_S5,09/05/2023,10:35:20.000,0.000,-0.063,1.000,-405.0,-193.5,963.0,,
1_S5,09/05/2023,10:35:20.100,0.000,-0.063,1.000,,,,,
1_S5,09/05/2023,10:35:20.200,0.000,-0.063,1.000,,,,,
1_S5,09/05/2023,10:35:20.300,0.000,-0.063,1.000,,,,,
1_S5,09/05/2023,10:35:20.400,0.000,0.000,0.938,,,,,
1_S5,09/05/2023,10:35:20.500,0.000,-0.125,1.000,-397.5,-187.5,955.5,,
1_S5,09/05/2023,10:35:20.600,0.000,-0.063,0.938,,,,,
1_S5,09/05/2023,10:35:20.700,0.000,-0.125,1.000,,,,,
1_S5,09/05/2023,10:35:20.800,0.000,-0.125,1.000,,,,,
1_S5,09/05/2023,10:35:20.900,0.000,-0.125,1.000,,,,,
1_S5,09/05/2023,10:35:21.000,0.000,-0.063,1.000,-420.0,-187.5,954.0,,
1_S5,09/05/2023,10:35:21.100,0.000,-0.119,1.000,,,,,
1_S5,09/05/2023,10:35:21.200,0.000,-0.075,1.000,,,,,
1_S5,09/05/2023,10:35:21.300,0.000,-0.106,1.000,,,,,
1_S5,09/05/2023,10:35:21.400,0.000,-0.088,1.000,,,,,
1_S5,09/05/2023,10:35:21.500,0.000,-0.094,1.000,-405.0,-183.0,933.0,,
1_S5,09/05/2023,10:35:21.600,0.000,-0.063,1.000,,,,,
1_S5,09/05/2023,10:35:21.700,0.000,-0.063,1.000,,,,,
1_S5,09/05/2023,10:35:21.800,0.000,-0.113,1.000,,,,,
1_S5,09/05/2023,10:35:21.900,0.000,-0.063,1.000,,,,,
1_S5,09/05/2023,10:35:22.000,0.000,-0.063,1.000,-421.5,-181.5,946.5,,
1_S5,09/05/2023,10:35:22.100,0.000,-0.125,1.000,,,,,
1_S5,09/05/2023,10:35:22.200,0.000,-0.063,1.000,,,,,
1_S5,09/05/2023,10:35:22.300,0.000,-0.125,1.000,,,,,
1_S5,09/05/2023,10:35:22.400,0.000,-0.125,1.000,,,,,
1_S5,09/05/2023,10:35:22.500,0.000,-0.063,1.000,-402.0,-201.0,963.0,,
1_S5,09/05/2023,10:35:22.600,0.000,-0.063,1.000,,,,,
1_S5,09/05/2023,10:35:22.700,0.000,0.000,1.000,,,,,
1_S5,09/05/2023,10:35:22.800,0.000,0.000,1.000,,,,,
1_S5,09/05/2023,10:35:22.900,0.000,-0.063,1.000,,,,,
1_S5,09/05/2023,10:35:23.000,0.000,-0.125,1.000,-402.0,-186.0,961.5,22,
1_S5,09/05/2023,10:35:23.100,0.000,-0.125,1.000,,,,,
1_S5,09/05/2023,10:35:23.200,0.000,-0.125,1.000,,,,,
1_S5,09/05/2023,10:35:23.300,0.063,-0.125,1.000,,,,,
1_S5,09/05/2023,10:35:23.400,0.000,-0.063,1.000,,,,,
1_S5,09/05/2023,10:35:23.500,0.000,-0.125,1.000,-409.5,-177.0,961.5,,
1_S5,09/05/2023,10:35:23.600,0.000,-0.125,1.000,,,,,
1_S5,09/05/2023,10:35:23.700,0.000,-0.125,1.000,,,,,
1_S5,09/05/2023,10:35:23.800,0.000,-0.125,1.000,,,,,
1_S5,09/05/2023,10:35:23.900,0.000,-0.063,1.000,,,,,
1_S5,09/05/2023,10:35:24.000,0.000,-0.063,1.000,-396.0,-187.5,960.0,,
1_S5,09/05/2023,10:35:24.100,0.000,-0.063,1.000,,,,,
1_S5,09/05/2023,10:35:24.200,0.000,-0.063,1.000,,,,,
1_S5,09/05/2023,10:35:24.300,0.000,-0.125,0.938,,,,,
1_S5,09/05/2023,10:35:24.400,0.000,-0.125,1.000,,,,,
1_S5,09/05/2023,10:35:24.500,0.000,-0.063,1.000,-402.0,-166.5,967.5,,
1_S5,09/05/2023,10:35:24.600,0.000,-0.063,1.000,,,,,
1_S5,09/05/2023,10:35:24.700,0.000,-0.063,0.938,,,,,
1_S5,09/05/2023,10:35:24.800,0.000,-0.063,1.000,,,,,
1_S5,09/05/2023,10:35:24.900,0.000,-0.125,1.000,,,,,
1_S5,09/05/2023,10:35:25.000,0.000,-0.063,1.000,-396.0,-187.5,942.0,,
1_S5,09/05/2023,10:35:25.100,0.000,-0.113,1.000,,,,,
1_S5,09/05/2023,10:35:25.200,0.000,-0.025,1.000,,,,,
1_S5,09/05/2023,10:35:25.300,0.000,-0.106,1.000,,,,,
1_S5,09/05/2023,10:35:25.400,0.000,-0.063,1.000,,,,,
1_S5,09/05/2023,10:35:25.500,0.000,-0.063,1.032,-408.0,-174.0,957.0,,
1_S5,09/05/2023,10:35:25.600,0.038,-0.063,1.025,,,,,
1_S5,09/05/2023,10:35:25.700,0.063,-0.106,1.000,,,,,
1_S5,09/05/2023,10:35:25.800,0.013,-0.125,1.000,,,,,
1_S5,09/05/2023,10:35:25.900,0.000,-0.063,1.000,,,,,
1_S5,09/05/2023,10:35:26.000,0.000,-0.063,1.000,-412.5,-174.0,957.0,,
1_S5,09/05/2023,10:35:26.100,0.000,-0.125,1.000,,,,,
1_S5,09/05/2023,10:35:26.200,0.000,-0.063,1.000,,,,,
1_S5,09/05/2023,10:35:26.300,-0.063,-0.125,1.000,,,,,
1_S5,09/05/2023,10:35:26.400,-0.063,0.000,0.938,,,,,
1_S5,09/05/2023,10:35:26.500,0.000,-0.063,1.000,-412.5,-180.0,943.5,,
1_S5,09/05/2023,10:35:26.600,0.000,-0.063,1.000,,,,,
1_S5,09/05/2023,10:35:26.700,0.000,-0.125,1.000,,,,,
1_S5,09/05/2023,10:35:26.800,0.000,-0.125,1.000,,,,,
1_S5,09/05/2023,10:35:26.900,0.000,-0.063,1.000,,,,,
1_S5,09/05/2023,10:35:27.000,0.000,0.000,1.000,-414.0,-174.0,960.0,,
1_S5,09/05/2023,10:35:27.100,0.000,-0.125,1.000,,,,,
1_S5,09/05/2023,10:35:27.200,0.000,-0.125,1.000,,,,,
1_S5,09/05/2023,10:35:27.300,0.000,-0.063,1.000,,,,,
1_S5,09/05/2023,10:35:27.400,0.000,-0.063,1.000,,,,,
1_S5,09/05/2023,10:35:27.500,0.000,-0.125,1.000,-417.0,-192.0,948.0,,
1_S5,09/05/2023,10:35:27.600,0.000,-0.125,1.000,,,,,
1_S5,09/05/2023,10:35:27.700,0.000,-0.125,1.000,,,,,
1_S5,09/05/2023,10:35:27.800,0.000,-0.063,1.000,,,,,
1_S5,09/05/2023,10:35:27.900,0.000,-0.125,1.000,,,,,
1_S5,09/05/2023,10:35:28.000,0.000,-0.125,1.000,-388.5,-171.0,954.0,22,
1_S5,09/05/2023,10:35:28.100,0.000,-0.125,1.000,,,,,
1_S5,09/05/2023,10:35:28.200,0.000,-0.063,1.000,,,,,
1_S5,09/05/2023,10:35:28.300,0.000,-0.063,1.063,,,,,
1_S5,09/05/2023,10:35:28.400,0.000,-0.125,1.000,,,,,
1_S5,09/05/2023,10:35:28.500,0.000,-0.063,1.000,-400.5,-174.0,945.0,,
1_S5,09/05/2023,10:35:28.600,0.000,-0.063,1.000,,,,,
1_S5,09/05/2023,10:35:28.700,0.000,0.000,1.000,,,,,
1_S5,09/05/2023,10:35:28.800,0.000,-0.125,0.938,,,,,
1_S5,09/05/2023,10:35:28.900,0.000,-0.125,1.000,,,,,
1_S5,09/05/2023,10:35:29.000,0.000,0.000,0.938,-415.5,-184.5,963.0,,
1_S5,09/05/2023,10:35:29.100,0.000,-0.063,1.000,,,,,
1_S5,09/05/2023,10:35:29.200,0.000,-0.125,1.000,,,,,
1_S5,09/05/2023,10:35:29.300,0.000,-0.125,0.938,,,,,
1_S5,09/05/2023,10:35:29.400,0.000,-0.125,1.000,,,,,
1_S5,09/05/2023,10:35:29.500,0.000,-0.063,1.000,-480.0,-178.5,916.5,,
1_S5,09/05/2023,10:35:29.600,0.000,0.000,1.000,,,,,
1_S5,09/05/2023,10:35:29.700,0.000,-0.063,1.000,,,,,
1_S5,09/05/2023,10:35:29.800,0.000,-0.063,1.000,,,,,
1_S5,09/05/2023,10:35:29.900,0.438,-0.063,0.375,,,,,
1_S5,09/05/2023,10:35:30.000,-0.063,-0.313,0.750,-1423.5,-3264.0,2643.0,,
1_S5,09/05/2023,10:35:30.100,-0.063,-0.250,0.782,,,,,
1_S5,09/05/2023,10:35:30.200,-0.050,-0.225,0.563,,,,,
1_S5,09/05/2023,10:35:30.300,0.019,-0.106,0.869,,,,,
1_S5,09/05/2023,10:35:30.400,0.038,-0.063,1.000,,,,,
1_S5,09/05/2023,10:35:30.500,0.031,-0.063,1.000,-1776.0,-3283.5,2595.0,,
1_S5,09/05/2023,10:35:30.600,0.063,-0.100,1.000,,,,,
1_S5,09/05/2023,10:35:30.700,0.019,-0.081,1.000,,,,,
1_S5,09/05/2023,10:35:30.800,0.000,-0.113,0.950,,,,,
1_S5,09/05/2023,10:35:30.900,0.063,-0.063,1.000,,,,,
1_S5,09/05/2023,10:35:31.000,0.063,-0.063,1.000,-1798.5,-3276.0,2617.5,,
1_S5,09/05/2023,10:35:31.100,0.000,0.000,0.938,,,,,
1_S5,09/05/2023,10:35:31.200,0.063,-0.125,1.000,,,,,
1_S5,09/05/2023,10:35:31.300,0.063,-0.063,1.000,,,,,
1_S5,09/05/2023,10:35:31.400,0.063,-0.125,1.000,,,,,
1_S5,09/05/2023,10:35:31.500,0.063,-0.125,1.000,-1788.0,-3261.0,2605.5,,
1_S5,09/05/2023,10:35:31.600,0.063,-0.125,1.000,,,,,
1_S5,09/05/2023,10:35:31.700,0.000,-0.063,1.000,,,,,
1_S5,09/05/2023,10:35:31.800,0.063,-0.125,1.000,,,,,
1_S5,09/05/2023,10:35:31.900,0.063,-0.125,1.000,,,,,
1_S5,09/05/2023,10:35:32.000,0.063,-0.125,1.000,-1798.5,-3267.0,2601.0,,
1_S5,09/05/2023,10:35:32.100,0.063,-0.125,1.000,,,,,
1_S5,09/05/2023,10:35:32.200,0.063,-0.063,1.000,,,,,
1_S5,09/05/2023,10:35:32.300,0.063,-0.125,0.938,,,,,
1_S5,09/05/2023,10:35:32.400,0.000,-0.125,1.000,,,,,
1_S5,09/05/2023,10:35:32.500,0.063,-0.063,1.000,-1797.0,-3264.0,2596.5,,
1_S5,09/05/2023,10:35:32.600,0.063,-0.125,1.000,,,,,
1_S5,09/05/2023,10:35:32.700,0.000,-0.125,1.000,,,,,
1_S5,09/05/2023,10:35:32.800,0.063,-0.125,1.000,,,,,
1_S5,09/05/2023,10:35:32.900,0.063,-0.125,0.938,,,,,
1_S5,09/05/2023,10:35:33.000,0.063,-0.125,1.000,-1806.0,-3265.5,2625.0,22,
1_S5,09/05/2023,10:35:33.100,0.125,-0.125,1.000,,,,,
1_S5,09/05/2023,10:35:33.200,0.063,-0.125,0.938,,,,,
1_S5,09/05/2023,10:35:33.300,0.063,-0.063,1.000,,,,,
1_S5,09/05/2023,10:35:33.400,0.063,-0.063,1.000,,,,,
1_S5,09/05/2023,10:35:33.500,0.000,-0.063,1.000,-1800.0,-3262.5,2587.5,,
1_S5,09/05/2023,10:35:33.600,0.063,-0.125,1.000,,,,,
1_S5,09/05/2023,10:35:33.700,0.063,-0.063,1.000,,,,,
1_S5,09/05/2023,10:35:33.800,0.063,-0.063,1.000,,,,,
1_S5,09/05/2023,10:35:33.900,0.063,-0.125,0.938,,,,,
1_S5,09/05/2023,10:35:34.000,0.063,-0.063,1.000,-1806.0,-3262.5,2599.5,,
1_S5,09/05/2023,10:35:34.100,0.063,-0.063,0.938,,,,,
1_S5,09/05/2023,10:35:34.200,0.063,-0.063,1.000,,,,,
1_S5,09/05/2023,10:35:34.300,0.063,-0.063,0.938,,,,,
1_S5,09/05/2023,10:35:34.400,0.063,0.000,1.000,,,,,
1_S5,09/05/2023,10:35:34.500,0.063,-0.125,1.000,-1807.5,-3268.5,2595.0,,
1_S5,09/05/2023,10:35:34.600,0.063,0.000,1.000,,,,,
1_S5,09/05/2023,10:35:34.700,0.000,-0.125,1.000,,,,,
1_S5,09/05/2023,10:35:34.800,0.000,-0.063,1.000,,,,,
1_S5,09/05/2023,10:35:34.900,0.063,-0.063,1.000,,,,,
1_S5,09/05/2023,10:35:35.000,0.063,-0.125,1.000,-1798.5,-3261.0,2581.5,,
1_S5,09/05/2023,10:35:35.100,0.063,-0.125,0.944,,,,,
1_S5,09/05/2023,10:35:35.200,0.050,-0.125,1.000,,,,,
1_S5,09/05/2023,10:35:35.300,0.019,-0.125,0.982,,,,,
1_S5,09/05/2023,10:35:35.400,0.063,-0.100,0.963,,,,,
1_S5,09/05/2023,10:35:35.500,0.063,-0.063,1.000,-1791.0,-3259.5,2605.5,,
1_S5,09/05/2023,10:35:35.600,0.063,-0.063,1.000,,,,,
1_S5,09/05/2023,10:35:35.700,0.063,-0.106,1.000,,,,,
1_S5,09/05/2023,10:35:35.800,0.063,-0.075,1.000,,,,,
1_S5,09/05/2023,10:35:35.900,0.063,-0.125,1.125,,,,,
1_S5,09/05/2023,10:35:36.000,0.063,-0.063,1.000,-1800.0,-3268.5,2586.0,,
1_S5,09/05/2023,10:35:36.100,0.063,-0.063,1.000,,,,,
1_S5,09/05/2023,10:35:36.200,0.000,-0.063,0.938,,,,,
1_S5,09/05/2023,10:35:36.300,0.063,-0.125,1.000,,,,,
1_S5,09/05/2023,10:35:36.400,0.063,-0.063,1.000,,,,,
1_S5,09/05/2023,10:35:36.500,0.000,-0.063,0.938,-1819.5,-3258.0,2581.5,,
1_S5,09/05/2023,10:35:36.600,0.063,-0.125,1.000,,,,,
1_S5,09/05/2023,10:35:36.700,0.063,-0.063,1.000,,,,,
1_S5,09/05/2023,10:35:36.800,0.063,-0.125,1.000,,,,,
1_S5,09/05/2023,10:35:36.900,0.063,-0.125,1.000,,,,,
1_S5,09/05/2023,10:35:37.000,0.063,-0.125,1.000,-1810.5,-3273.0,2596.5,,
1_S5,09/05/2023,10:35:37.100,0.063,-0.125,1.000,,,,,
1_S5,09/05/2023,10:35:37.200,0.063,-0.125,1.000,,,,,
1_S5,09/05/2023,10:35:37.300,0.000,-0.063,1.000,,,,,
1_S5,09/05/2023,10:35:37.400,0.063,-0.125,1.000,,,,,
1_S5,09/05/2023,10:35:37.500,0.063,-0.125,1.000,-1801.5,-3261.0,2605.5,,
1_S5,09/05/2023,10:35:37.600,0.000,-0.063,1.000,,,,,
1_S5,09/05/2023,10:35:37.700,0.063,-0.063,1.000,,,,,
1_S5,09/05/2023,10:35:37.800,0.063,-0.063,0.938,,,,,
1_S5,09/05/2023,10:35:37.900,0.063,-0.063,1.000,,,,,
1_S5,09/05/2023,10:35:38.000,0.063,-0.063,1.000,-1809.0,-3261.0,2590.5,22,
1_S5,09/05/2023,10:35:38.100,0.063,-0.125,0.938,,,,,
1_S5,09/05/2023,10:35:38.200,0.063,-0.125,1.000,,,,,
1_S5,09/05/2023,10:35:38.300,0.063,-0.125,1.000,,,,,
1_S5,09/05/2023,10:35:38.400,0.063,-0.063,1.000,,,,,
1_S5,09/05/2023,10:35:38.500,0.063,-0.063,0.938,-1810.5,-3256.5,2599.5,,
1_S5,09/05/2023,10:35:38.600,0.063,-0.063,1.000,,,,,
1_S5,09/05/2023,10:35:38.700,0.000,-0.063,1.000,,,,,
1_S5,09/05/2023,10:35:38.800,0.063,-0.125,1.000,,,,,
1_S5,09/05/2023,10:35:38.900,0.063,-0.063,1.063,,,,,
1_S5,09/05/2023,10:35:39.000,0.063,-0.125,0.938,-1821.0,-3255.0,2577.0,,
1_S5,09/05/2023,10:35:39.100,0.063,-0.125,0.938,,,,,
1_S5,09/05/2023,10:35:39.200,0.063,-0.063,1.000,,,,,
1_S5,09/05/2023,10:35:39.300,0.000,-0.125,1.000,,,,,
1_S5,09/05/2023,10:35:39.400,0.063,-0.063,1.000,,,,,
1_S5,09/05/2023,10:35:39.500,0.063,-0.125,1.000,-1810.5,-3261.0,2598.0,,
1_S5,09/05/2023,10:35:39.600,0.063,-0.063,1.000,,,,,
1_S5,09/05/2023,10:35:39.700,0.063,-0.063,1.000,,,,,
1_S5,09/05/2023,10:35:39.800,0.063,-0.063,1.000,,,,,
1_S5,09/05/2023,10:35:39.900,0.000,-0.125,1.000,,,,,
1_S5,09/05/2023,10:35:40.000,0.063,-0.063,1.000,-1816.5,-3253.5,2598.0,,
1_S5,09/05/2023,10:35:40.100,0.063,-0.063,1.000,,,,,
1_S5,09/05/2023,10:35:40.200,0.063,-0.050,1.000,,,,,
1_S5,09/05/2023,10:35:40.300,0.063,-0.019,1.000,,,,,
1_S5,09/05/2023,10:35:40.400,0.063,-0.038,1.000,,,,,
1_S5,09/05/2023,10:35:40.500,0.063,-0.031,0.969,-1807.5,-3258.0,2610.0,,
1_S5,09/05/2023,10:35:40.600,0.063,-0.063,0.975,,,,,
1_S5,09/05/2023,10:35:40.700,0.019,-0.106,1.000,,,,,
1_S5,09/05/2023,10:35:40.800,0.050,-0.075,1.000,,,,,
1_S5,09/05/2023,10:35:40.900,0.063,-0.125,1.000,,,,,
1_S5,09/05/2023,10:35:41.000,0.000,-0.063,1.000,-1822.5,-3247.5,2586.0,,
1_S5,09/05/2023,10:35:41.100,0.063,-0.125,1.000,,,,,
1_S5,09/05/2023,10:35:41.200,0.063,-0.063,1.000,,,,,
1_S5,09/05/2023,10:35:41.300,0.063,-0.063,1.000,,,,,
1_S5,09/05/2023,10:35:41.400,0.063,-0.125,0.938,,,,,
1_S5,09/05/2023,10:35:41.500,0.063,-0.125,1.000,-1809.0,-3262.5,2583.0,,
1_S5,09/05/2023,10:35:41.600,0.000,-0.063,1.000,,,,,
1_S5,09/05/2023,10:35:41.700,0.063,-0.125,0.938,,,,,
1_S5,09/05/2023,10:35:41.800,0.063,-0.063,0.938,,,,,
1_S5,09/05/2023,10:35:41.900,0.000,-0.125,1.000,,,,,
1_S5,09/05/2023,10:35:42.000,0.063,-0.125,1.000,-1816.5,-3262.5,2610.0,,
1_S5,09/05/2023,10:35:42.100,0.063,-0.125,1.000,,,,,
1_S5,09/05/2023,10:35:42.200,0.063,-0.063,1.000,,,,,
1_S5,09/05/2023,10:35:42.300,0.063,-0.063,1.000,,,,,
1_S5,09/05/2023,10:35:42.400,0.063,-0.063,1.000,,,,,
1_S5,09/05/2023,10:35:42.500,0.000,-0.063,0.938,-1804.5,-3235.5,2611.5,,
1_S5,09/05/2023,10:35:42.600,0.063,-0.125,1.000,,,,,
1_S5,09/05/2023,10:35:42.700,0.063,0.000,0.938,,,,,
1_S5,09/05/2023,10:35:42.800,0.063,-0.063,1.000,,,,,
1_S5,09/05/2023,10:35:42.900,0.063,-0.063,0.938,,,,,
1_S5,09/05/2023,10:35:43.000,0.000,-0.125,1.000,-1798.5,-3261.0,2581.5,22,
1_S5,09/05/2023,10:35:43.100,0.063,0.000,0.938,,,,,
1_S5,09/05/2023,10:35:43.200,0.063,-0.125,0.938,,,,,
1_S5,09/05/2023,10:35:43.300,0.063,-0.125,1.000,,,,,
1_S5,09/05/2023,10:35:43.400,0.000,-0.125,1.000,,,,,
1_S5,09/05/2023,10:35:43.500,0.063,-0.125,1.063,-1825.5,-3255.0,2587.5,,
1_S5,09/05/2023,10:35:43.600,0.063,-0.063,1.063,,,,,
1_S5,09/05/2023,10:35:43.700,0.063,-0.063,1.000,,,,,
1_S5,09/05/2023,10:35:43.800,0.063,-0.063,1.000,,,,,
1_S5,09/05/2023,10:35:43.900,0.063,-0.063,1.000,,,,,
1_S5,09/05/2023,10:35:44.000,0.063,-0.125,1.000,-1818.0,-3264.0,2595.0,,
1_S5,09/05/2023,10:35:44.100,0.063,-0.119,0.994,,,,,
1_S5,09/05/2023,10:35:44.200,0.063,-0.063,0.950,,,,,
1_S5,09/05/2023,10:35:44.300,0.044,-0.081,1.000,,,,,
1_S5,09/05/2023,10:35:44.400,0.025,-0.125,1.000,,,,,
1_S5,09/05/2023,10:35:44.500,0.063,-0.125,0.969,-1800.0,-3264.0,2590.5,,
1_S5,09/05/2023,10:35:44.600,0.063,-0.125,1.013,,,,,
1_S5,09/05/2023,10:35:44.700,0.063,-0.081,1.019,,,,,
1_S5,09/05/2023,10:35:44.800,0.063,-0.113,1.000,,,,,
1_S5,09/05/2023,10:35:44.900,0.063,-0.063,1.000,,,,,
1_S5,09/05/2023,10:35:45.000,0.063,-0.125,0.938,-1812.0,-3250.5,2595.0,,
1_S5,09/05/2023,10:35:45.100,0.063,-0.063,1.000,,,,,
1_S5,09/05/2023,10:35:45.200,0.063,-0.063,0.938,,,,,
1_S5,09/05/2023,10:35:45.300,0.063,-0.125,1.000,,,,,
1_S5,09/05/2023,10:35:45.400,0.063,-0.125,0.938,,,,,
1_S5,09/05/2023,10:35:45.500,0.000,-0.125,1.000,-1812.0,-3259.5,2589.0,,
1_S5,09/05/2023,10:35:45.600,0.000,-0.063,1.000,,,,,
1_S5,09/05/2023,10:35:45.700,0.063,-0.063,1.000,,,,,
1_S5,09/05/2023,10:35:45.800,0.063,0.000,0.938,,,,,
1_S5,09/05/2023,10:35:45.900,0.000,-0.125,1.000,,,,,
1_S5,09/05/2023,10:35:46.000,0.000,-0.125,1.000,-1827.0,-3240.0,2593.5,,
1_S5,09/05/2023,10:35:46.100,0.063,-0.063,0.938,,,,,
1_S5,09/05/2023,10:35:46.200,0.063,-0.063,1.000,,,,,
1_S5,09/05/2023,10:35:46.300,0.063,0.000,0.938,,,,,
1_S5,09/05/2023,10:35:46.400,0.063,-0.125,1.000,,,,,
1_S5,09/05/2023,10:35:46.500,0.063,-0.125,0.938,-1812.0,-3255.0,2589.0,,
1_S5,09/05/2023,10:35:46.600,0.000,-0.125,1.000,,,,,
1_S5,09/05/2023,10:35:46.700,0.063,-0.125,1.000,,,,,
1_S5,09/05/2023,10:35:46.800,0.063,-0.125,0.938,,,,,
1_S5,09/05/2023,10:35:46.900,0.063,-0.125,1.000,,,,,
1_S5,09/05/2023,10:35:47.000,0.063,-0.063,1.000,-1831.5,-3250.5,2586.0,,
1_S5,09/05/2023,10:35:47.100,0.063,0.000,1.000,,,,,
1_S5,09/05/2023,10:35:47.200,0.063,-0.125,1.000,,,,,
1_S5,09/05/2023,10:35:47.300,0.063,-0.063,1.000,,,,,
1_S5,09/05/2023,10:35:47.400,0.063,0.000,1.000,,,,,
1_S5,09/05/2023,10:35:47.500,0.063,-0.063,0.938,-1821.0,-3240.0,2607.0,,
1_S5,09/05/2023,10:35:47.600,0.063,-0.063,0.938,,,,,
1_S5,09/05/2023,10:35:47.700,0.063,-0.125,1.000,,,,,
1_S5,09/05/2023,10:35:47.800,0.063,-0.063,1.000,,,,,
1_S5,09/05/2023,10:35:47.900,0.063,-0.125,1.000,,,,,
1_S5,09/05/2023,10:35:48.000,0.063,-0.125,1.000,-1830.0,-3258.0,2589.0,22,
1_S5,09/05/2023,10:35:48.100,0.063,-0.063,1.000,,,,,
1_S5,09/05/2023,10:35:48.200,0.063,-0.125,1.000,,,,,
1_S5,09/05/2023,10:35:48.300,0.063,-0.125,1.000,,,,,
1_S5,09/05/2023,10:35:48.400,0.063,-0.063,1.000,,,,,
1_S5,09/05/2023,10:35:48.500,0.063,-0.125,1.000,-1819.5,-3244.5,2608.5,,
1_S5,09/05/2023,10:35:48.600,0.063,-0.063,1.000,,,,,
1_S5,09/05/2023,10:35:48.700,0.063,-0.063,0.938,,,,,
1_S5,09/05/2023,10:35:48.800,0.063,-0.063,1.000,,,,,
1_S5,09/05/2023,10:35:48.900,0.063,-0.125,1.000,,,,,
1_S5,09/05/2023,10:35:49.000,0.000,-0.125,1.000,-1836.0,-3258.0,2611.5,,
1_S5,09/05/2023,10:35:49.100,0.006,-0.069,1.000,,,,,
1_S5,09/05/2023,10:35:49.200,0.063,-0.113,1.000,,,,,
1_S5,09/05/2023,10:35:49.300,0.063,-0.063,0.982,,,,,
1_S5,09/05/2023,10:35:49.400,0.063,-0.088,0.938,,,,,
1_S5,09/05/2023,10:35:49.500,0.063,-0.094,0.969,-1819.5,-3259.5,2587.5,,
1_S5,09/05/2023,10:35:49.600,0.063,-0.100,1.000,,,,,
1_S5,09/05/2023,10:35:49.700,0.063,-0.125,0.957,,,,,
1_S5,09/05/2023,10:35:49.800,0.063,-0.075,0.988,,,,,
1_S5,09/05/2023,10:35:49.900,0.000,-0.125,0.938,,,,,
1_S5,09/05/2023,10:35:50.000,0.063,-0.125,1.000,-1830.0,-3273.0,2595.0,,
1_S5,09/05/2023,10:35:50.100,0.063,-0.125,0.938,,,,,
1_S5,09/05/2023,10:35:50.200,0.063,-0.125,1.000,,,,,
1_S5,09/05/2023,10:35:50.300,0.063,-0.063,1.000,,,,,
1_S5,09/05/2023,10:35:50.400,0.063,-0.063,1.000,,,,,
1_S5,09/05/2023,10:35:50.500,0.063,-0.125,1.000,-1834.5,-3268.5,2589.0,,
1_S5,09/05/2023,10:35:50.600,0.063,-0.125,1.000,,,,,
1_S5,09/05/2023,10:35:50.700,0.063,-0.125,0.938,,,,,
1_S5,09/05/2023,10:35:50.800,0.063,-0.063,1.000,,,,,
1_S5,09/05/2023,10:35:50.900,0.063,-0.063,1.000,,,,,
1_S5,09/05/2023,10:35:51.000,0.063,-0.125,1.000,-1815.0,-3249.0,2602.5,,
1_S5,09/05/2023,10:35:51.100,0.063,-0.063,1.000,,,,,
1_S5,09/05/2023,10:35:51.200,0.063,-0.063,0.938,,,,,
1_S5,09/05/2023,10:35:51.300,0.000,-0.125,0.938,,,,,
1_S5,09/05/2023,10:35:51.400,0.063,-0.063,0.938,,,,,
1_S5,09/05/2023,10:35:51.500,0.063,-0.125,1.000,-1819.5,-3255.0,2586.0,,
1_S5,09/05/2023,10:35:51.600,0.063,-0.125,0.938,,,,,
1_S5,09/05/2023,10:35:51.700,0.063,-0.063,1.000,,,,,
1_S5,09/05/2023,10:35:51.800,0.063,0.000,1.000,,,,,
1_S5,09/05/2023,10:35:51.900,0.000,-0.063,0.938,,,,,
1_S5,09/05/2023,10:35:52.000,0.063,-0.063,1.000,-1836.0,-3262.5,2601.0,,
1_S5,09/05/2023,10:35:52.100,0.000,-0.063,1.000,,,,,
1_S5,09/05/2023,10:35:52.200,0.063,0.000,1.000,,,,,
1_S5,09/05/2023,10:35:52.300,0.063,-0.063,1.000,,,,,
1_S5,09/05/2023,10:35:52.400,0.063,-0.063,1.000,,,,,
1_S5,09/05/2023,10:35:52.500,0.063,-0.063,1.000,-1815.0,-3259.5,2607.0,,
1_S5,09/05/2023,10:35:52.600,0.063,-0.063,1.000,,,,,
1_S5,09/05/2023,10:35:52.700,0.063,-0.125,1.000,,,,,
1_S5,09/05/2023,10:35:52.800,0.063,-0.063,1.000,,,,,
1_S5,09/05/2023,10:35:52.900,0.063,-0.125,1.000,,,,,
1_S5,09/05/2023,10:35:53.000,0.000,-0.063,1.000,-1839.0,-3261.0,2590.5,22,
1_S5,09/05/2023,10:35:53.100,0.000,-0.125,1.000,,,,,
1_S5,09/05/2023,10:35:53.200,0.063,-0.063,1.000,,,,,
1_S5,09/05/2023,10:35:53.300,0.000,-0.125,1.000,,,,,
1_S5,09/05/2023,10:35:53.400,0.063,-0.125,1.000,,,,,
1_S5,09/05/2023,10:35:53.500,0.063,-0.125,1.000,-1827.0,-3246.0,2592.0,,
1_S5,09/05/2023,10:35:53.600,0.063,-0.063,0.938,,,,,
1_S5,09/05/2023,10:35:53.700,0.063,-0.125,1.000,,,,,
1_S5,09/05/2023,10:35:53.800,0.063,-0.125,1.000,,,,,
1_S5,09/05/2023,10:35:53.900,0.063,-0.125,1.000,,,,,
1_S5,09/05/2023,10:35:54.000,0.063,-0.125,1.000,-1807.5,-3253.5,2598.0,,
1_S5,09/05/2023,10:35:54.100,0.063,-0.125,1.000,,,,,
1_S5,09/05/2023,10:35:54.200,0.063,-0.113,1.000,,,,,
1_S5,09/05/2023,10:35:54.300,0.081,-0.063,1.000,,,,,
1_S5,09/05/2023,10:35:54.400,0.075,-0.088,1.000,,,,,
1_S5,09/05/2023,10:35:54.500,0.000,-0.094,1.000,-1830.0,-3244.5,2575.5,,
1_S5,09/05/2023,10:35:54.600,0.038,-0.100,0.963,,,,,
1_S5,09/05/2023,10:35:54.700,0.063,-0.038,0.982,,,,,
1_S5,09/05/2023,10:35:54.800,0.013,-0.100,1.000,,,,,
1_S5,09/05/2023,10:35:54.900,0.063,-0.063,1.000,,,,,
1_S5,09/05/2023,10:35:55.000,0.063,-0.125,1.000,-1822.5,-3243.0,2596.5,,
1_S5,09/05/2023,10:35:55.100,0.063,-0.063,1.000,,,,,
1_S5,09/05/2023,10:35:55.200,0.063,-0.125,1.000,,,,,
1_S5,09/05/2023,10:35:55.300,0.063,-0.125,0.938,,,,,
1_S5,09/05/2023,10:35:55.400,0.063,-0.125,1.000,,,,,
1_S5,09/05/2023,10:35:55.500,0.063,-0.063,1.000,-1809.0,-3244.5,2601.0,,
1_S5,09/05/2023,10:35:55.600,0.063,-0.063,1.000,,,,,
1_S5,09/05/2023,10:35:55.700,0.000,-0.125,1.000,,,,,
1_S5,09/05/2023,10:35:55.800,0.063,-0.125,1.000,,,,,
1_S5,09/05/2023,10:35:55.900,0.063,-0.063,1.000,,,,,
1_S5,09/05/2023,10:35:56.000,0.000,-0.063,1.000,-1833.0,-3244.5,2599.5,,
1_S5,09/05/2023,10:35:56.100,0.063,-0.063,1.000,,,,,
1_S5,09/05/2023,10:35:56.200,0.063,-0.125,1.000,,,,,
1_S5,09/05/2023,10:35:56.300,0.063,-0.125,1.000,,,,,
1_S5,09/05/2023,10:35:56.400,0.063,-0.125,1.000,,,,,
1_S5,09/05/2023,10:35:56.500,0.063,-0.063,1.000,-1836.0,-3262.5,2593.5,,
1_S5,09/05/2023,10:35:56.600,0.063,-0.125,0.938,,,,,
1_S5,09/05/2023,10:35:56.700,0.000,-0.063,1.000,,,,,
1_S5,09/05/2023,10:35:56.800,0.063,-0.125,0.938,,,,,
1_S5,09/05/2023,10:35:56.900,0.063,-0.125,0.938,,,,,
1_S5,09/05/2023,10:35:57.000,0.063,-0.125,0.938,-1830.0,-3240.0,2596.5,,
1_S5,09/05/2023,10:35:57.100,0.063,-0.063,1.000,,,,,
1_S5,09/05/2023,10:35:57.200,0.000,-0.063,0.938,,,,,
1_S5,09/05/2023,10:35:57.300,0.063,-0.125,0.938,,,,,
1_S5,09/05/2023,10:35:57.400,0.125,-0.063,1.000,,,,,
1_S5,09/05/2023,10:35:57.500,0.063,-0.125,1.000,-1819.5,-3240.0,2584.5,,
1_S5,09/05/2023,10:35:57.600,0.063,-0.063,1.000,,,,,
1_S5,09/05/2023,10:35:57.700,0.063,-0.125,1.000,,,,,
1_S5,09/05/2023,10:35:57.800,0.000,-0.063,1.000,,,,,
1_S5,09/05/2023,10:35:57.900,0.000,-0.063,0.938,,,,,
1_S5,09/05/2023,10:35:58.000,0.063,-0.125,1.000,-1828.5,-3250.5,2589.0,22,
1_S5,09/05/2023,10:35:58.100,0.063,-0.119,1.000,,,,,
1_S5,09/05/2023,10:35:58.200,0.063,-0.063,1.000,,,,,
1_S5,09/05/2023,10:35:58.300,0.063,-0.063,1.019,,,,,
1_S5,09/05/2023,10:35:58.400,0.063,-0.063,1.038,,,,,
1_S5,09/05/2023,10:35:58.500,0.031,-0.094,1.000,-1819.5,-3252.0,2599.5,,
1_S5,09/05/2023,10:35:58.600,0.000,-0.050,1.000,,,,,
1_S5,09/05/2023,10:35:58.700,0.044,-0.088,0.957,,,,,
1_S5,09/05/2023,10:35:58.800,0.063,-0.075,0.938,,,,,
1_S5,09/05/2023,10:35:58.900,0.063,-0.125,0.938,,,,,
1_S5,09/05/2023,10:35:59.000,0.000,-0.063,1.000,-1827.0,-3255.0,2586.0,,
1_S5,09/05/2023,10:35:59.100,0.063,-0.063,1.000,,,,,
1_S5,09/05/2023,10:35:59.200,0.063,-0.125,1.000,,,,,
1_S5,09/05/2023,10:35:59.300,0.125,-0.063,1.000,,,,,
1_S5,09/05/2023,10:35:59.400,0.063,-0.063,0.938,,,,,
1_S5,09/05/2023,10:35:59.500,0.063,-0.125,1.000,-1825.5,-3256.5,2590.5,,
1_S5,09/05/2023,10:35:59.600,0.063,-0.125,1.000,,,,,
1_S5,09/05/2023,10:35:59.700,0.063,-0.125,1.000,,,,,
1_S5,09/05/2023,10:35:59.800,0.063,-0.063,1.000,,,,,
1_S5,09/05/2023,10:35:59.900,0.000,-0.063,1.000,,,,,
1_S5,09/05/2023,10:36:00.000,0.063,-0.125,1.000,-1819.5,-3244.5,2598.0,,
1_S5,09/05/2023,10:36:00.100,0.063,-0.063,1.063,,,,,
1_S5,09/05/2023,10:36:00.200,0.063,-0.125,0.938,,,,,
1_S5,09/05/2023,10:36:00.300,0.063,-0.125,1.000,,,,,
1_S5,09/05/2023,10:36:00.400,0.063,-0.063,1.000,,,,,
1_S5,09/05/2023,10:36:00.500,0.063,-0.063,1.000,-1815.0,-3249.0,2595.0,,
1_S5,09/05/2023,10:36:00.600,0.063,-0.125,0.938,,,,,
1_S5,09/05/2023,10:36:00.700,0.063,-0.125,1.000,,,,,
1_S5,09/05/2023,10:36:00.800,0.063,-0.125,1.000,,,,,
1_S5,09/05/2023,10:36:00.900,0.000,-0.063,1.000,,,,,
1_S5,09/05/2023,10:36:01.000,0.063,0.000,1.000,-1833.0,-3258.0,2586.0,,
1_S5,09/05/2023,10:36:01.100,0.063,-0.125,1.000,,,,,
1_S5,09/05/2023,10:36:01.200,0.000,-0.125,1.000,,,,,
1_S5,09/05/2023,10:36:01.300,0.063,-0.125,1.000,,,,,
1_S5,09/05/2023,10:36:01.400,0.063,-0.125,1.000,,,,,
1_S5,09/05/2023,10:36:01.500,0.063,-0.063,1.000,-1816.5,-3235.5,2593.5,,
1_S5,09/05/2023,10:36:01.600,0.063,-0.125,1.063,,,,,
1_S5,09/05/2023,10:36:01.700,0.125,-0.125,0.938,,,,,
1_S5,09/05/2023,10:36:01.800,0.063,-0.063,1.063,,,,,
1_S5,09/05/2023,10:36:01.900,0.063,-0.125,1.000,,,,,
1_S5,09/05/2023,10:36:02.000,0.063,-0.063,1.000,-1827.0,-3274.5,2608.5,,
1_S5,09/05/2023,10:36:02.100,0.063,-0.063,0.938,,,,,
1_S5,09/05/2023,10:36:02.200,0.063,-0.063,0.938,,,,,
1_S5,09/05/2023,10:36:02.300,0.000,-0.125,1.000,,,,,
1_S5,09/05/2023,10:36:02.400,0.063,-0.063,1.000,,,,,
1_S5,09/05/2023,10:36:02.500,0.063,-0.063,1.000,-1834.5,-3246.0,2605.5,,
1_S5,09/05/2023,10:36:02.600,0.063,-0.063,1.000,,,,,
1_S5,09/05/2023,10:36:02.700,0.063,-0.063,1.000,,,,,
1_S5,09/05/2023,10:36:02.800,0.000,-0.063,1.000,,,,,
1_S5,09/05/2023,10:36:02.900,0.063,-0.063,1.000,,,,,
1_S5,09/05/2023,10:36:03.000,0.063,-0.063,0.938,-1825.5,-3240.0,2580.0,22,
1_S5,09/05/2023,10:36:03.100,0.063,-0.069,0.994,,,,,
1_S5,09/05/2023,10:36:03.200,0.063,-0.125,0.938,,,,,
1_S5,09/05/2023,10:36:03.300,0.063,-0.106,0.938,,,,,
1_S5,09/05/2023,10:36:03.400,0.063,-0.063,0.963,,,,,
1_S5,09/05/2023,10:36:03.500,0.063,-0.094,1.000,-1828.5,-3256.5,2601.0,,
1_S5,09/05/2023,10:36:03.600,0.063,-0.088,1.000,,,,,
1_S5,09/05/2023,10:36:03.700,0.063,-0.063,1.000,,,,,
1_S5,09/05/2023,10:36:03.800,0.063,-0.113,1.000,,,,,
1_S5,09/05/2023,10:36:03.900,0.063,-0.125,1.000,,,,,
1_S5,09/05/2023,10:36:04.000,0.063,-0.125,0.938,-1825.5,-3264.0,2595.0,,
1_S5,09/05/2023,10:36:04.100,0.063,-0.125,1.000,,,,,
1_S5,09/05/2023,10:36:04.200,0.063,-0.063,1.000,,,,,
1_S5,09/05/2023,10:36:04.300,0.063,-0.125,1.000,,,,,
1_S5,09/05/2023,10:36:04.400,0.063,-0.063,1.000,,,,,
1_S5,09/05/2023,10:36:04.500,0.125,-0.063,0.938,-1839.0,-3267.0,2583.0,,
1_S5,09/05/2023,10:36:04.600,0.063,0.000,1.000,,,,,
1_S5,09/05/2023,10:36:04.700,0.063,-0.125,0.938,,,,,
1_S5,09/05/2023,10:36:04.800,0.063,-0.125,0.938,,,,,
1_S5,09/05/2023,10:36:04.900,0.063,-0.125,0.938,,,,,
1_S5,09/05/2023,10:36:05.000,0.063,-0.125,0.938,-1831.5,-3253.5,2587.5,,
1_S5,09/05/2023,10:36:05.100,0.063,-0.125,1.000,,,,,
1_S5,09/05/2023,10:36:05.200,0.063,-0.125,1.000,,,,,
1_S5,09/05/2023,10:36:05.300,0.063,-0.063,1.000,,,,,
1_S5,09/05/2023,10:36:05.400,0.063,-0.063,1.000,,,,,
1_S5,09/05/2023,10:36:05.500,0.000,0.000,1.000,-1836.0,-3247.5,2587.5,,
1_S5,09/05/2023,10:36:05.600,0.063,-0.063,1.000,,,,,
1_S5,09/05/2023,10:36:05.700,0.063,-0.125,1.000,,,,,
1_S5,09/05/2023,10:36:05.800,0.063,-0.125,0.938,,,,,
1_S5,09/05/2023,10:36:05.900,0.063,-0.125,1.000,,,,,
1_S5,09/05/2023,10:36:06.000,0.063,-0.125,0.938,-1828.5,-3234.0,2598.0,,
1_S5,09/05/2023,10:36:06.100,0.000,-0.063,0.938,,,,,
1_S5,09/05/2023,10:36:06.200,0.063,-0.063,0.938,,,,,
1_S5,09/05/2023,10:36:06.300,0.063,-0.063,1.000,,,,,
1_S5,09/05/2023,10:36:06.400,0.000,-0.125,1.000,,,,,
1_S5,09/05/2023,10:36:06.500,0.063,-0.063,1.000,-1821.0,-3262.5,2587.5,,
1_S5,09/05/2023,10:36:06.600,0.125,-0.125,1.000,,,,,
1_S5,09/05/2023,10:36:06.700,0.063,-0.125,1.000,,,,,
1_S5,09/05/2023,10:36:06.800,0.063,-0.125,1.000,,,,,
1_S5,09/05/2023,10:36:06.900,0.063,-0.125,1.000,,,,,
1_S5,09/05/2023,10:36:07.000,0.063,-0.063,1.000,-1821.0,-3234.0,2599.5,,
1_S5,09/05/2023,10:36:07.100,0.063,-0.125,1.000,,,,,
1_S5,09/05/2023,10:36:07.200,0.000,-0.125,1.000,,,,,
1_S5,09/05/2023,10:36:07.300,0.063,-0.125,0.938,,,,,
1_S5,09/05/2023,10:36:07.400,0.063,-0.125,1.000,,,,,
1_S5,09/05/2023,10:36:07.500,0.063,-0.125,1.000,-1821.0,-3232.5,2590.5,,
1_S5,09/05/2023,10:36:07.600,0.000,-0.063,0.938,,,,,
1_S5,09/05/2023,10:36:07.700,0.000,-0.063,1.000,,,,,
1_S5,09/05/2023,10:36:07.800,0.063,-0.063,1.000,,,,,
1_S5,09/05/2023,10:36:07.900,0.063,-0.063,0.938,,,,,
1_S5,09/05/2023,10:36:08.000,0.063,-0.063,1.000,-1827.0,-3252.0,2586.0,22,
1_S5,09/05/2023,10:36:08.100,0.056,-0.069,1.000,,,,,
1_S5,09/05/2023,10:36:08.200,0.025,-0.113,1.000,,,,,
1_S5,09/05/2023,10:36:08.300,0.088,-0.081,0.982,,,,,
1_S5,09/05/2023,10:36:08.400,0.025,-0.100,0.938,,,,,
1_S5,09/05/2023,10:36:08.500,0.031,-0.063,0.969,-1831.5,-3240.0,2583.0,,
1_S5,09/05/2023,10:36:08.600,0.038,-0.063,1.000,,,,,
1_S5,09/05/2023,10:36:08.700,0.063,-0.106,1.000,,,,,
1_S5,09/05/2023,10:36:08.800,0.113,-0.075,0.950,,,,,
1_S5,09/05/2023,10:36:08.900,0.063,-0.063,1.000,,,,,
1_S5,09/05/2023,10:36:09.000,0.063,-0.125,0.938,-1813.5,-3262.5,2584.5,,
1_S5,09/05/2023,10:36:09.100,0.000,-0.125,1.000,,,,,
1_S5,09/05/2023,10:36:09.200,0.063,-0.063,0.938,,,,,
1_S5,09/05/2023,10:36:09.300,0.063,-0.125,1.000,,,,,
1_S5,09/05/2023,10:36:09.400,0.063,-0.125,0.938,,,,,
1_S5,09/05/2023,10:36:09.500,0.063,-0.125,1.000,-1828.5,-3246.0,2602.5,,
1_S5,09/05/2023,10:36:09.600,0.063,-0.125,1.000,,,,,
1_S5,09/05/2023,10:36:09.700,0.063,-0.063,1.000,,,,,
1_S5,09/05/2023,10:36:09.800,0.063,-0.125,1.000,,,,,
1_S5,09/05/2023,10:36:09.900,0.063,-0.063,1.000,,,,,
1_S5,09/05/2023,10:36:10.000,0.063,-0.125,1.000,-1837.5,-3262.5,2592.0,,
1_S5,09/05/2023,10:36:10.100,0.063,-0.125,1.000,,,,,
1_S5,09/05/2023,10:36:10.200,0.063,-0.125,1.000,,,,,
1_S5,09/05/2023,10:36:10.300,0.063,-0.125,1.000,,,,,
1_S5,09/05/2023,10:36:10.400,0.063,-0.125,1.000,,,,,
1_S5,09/05/2023,10:36:10.500,0.063,-0.063,1.000,-1833.0,-3252.0,2590.5,,
1_S5,09/05/2023,10:36:10.600,0.063,-0.125,0.938,,,,,
1_S5,09/05/2023,10:36:10.700,0.000,-0.125,0.938,,,,,
1_S5,09/05/2023,10:36:10.800,0.063,-0.125,1.000,,,,,
1_S5,09/05/2023,10:36:10.900,0.063,-0.125,0.938,,,,,
1_S5,09/05/2023,10:36:11.000,0.063,-0.063,1.000,-1822.5,-3256.5,2595.0,,
1_S5,09/05/2023,10:36:11.100,0.063,-0.125,1.000,,,,,
1_S5,09/05/2023,10:36:11.200,0.063,-0.125,1.000,,,,,
1_S5,09/05/2023,10:36:11.300,0.063,-0.063,1.000,,,,,
1_S5,09/05/2023,10:36:11.400,0.063,-0.125,0.938,,,,,
1_S5,09/05/2023,10:36:11.500,0.063,-0.125,1.000,-1825.5,-3253.5,2599.5,,
1_S5,09/05/2023,10:36:11.600,0.063,-0.063,1.063,,,,,
1_S5,09/05/2023,10:36:11.700,0.000,-0.125,0.938,,,,,
1_S5,09/05/2023,10:36:11.800,0.063,-0.125,1.000,,,,,
1_S5,09/05/2023,10:36:11.900,0.063,-0.125,1.000,,,,,
1_S5,09/05/2023,10:36:12.000,0.063,0.000,1.000,-1828.5,-3259.5,2595.0,,
1_S5,09/05/2023,10:36:12.100,0.063,-0.119,0.938,,,,,
1_S5,09/05/2023,10:36:12.200,0.063,-0.075,0.950,,,,,
1_S5,09/05/2023,10:36:12.300,0.044,-0.125,1.000,,,,,
1_S5,09/05/2023,10:36:12.400,0.000,-0.125,1.000,,,,,
1_S5,09/05/2023,10:36:12.500,0.031,-0.125,1.000,-1836.0,-3274.5,2601.0,,
1_S5,09/05/2023,10:36:12.600,0.063,-0.088,1.000,,,,,
1_S5,09/05/2023,10:36:12.700,0.063,-0.106,1.000,,,,,
1_S5,09/05/2023,10:36:12.800,0.063,-0.125,0.950,,,,,
1_S5,09/05/2023,10:36:12.900,0.125,-0.125,0.938,,,,,
1_S5,09/05/2023,10:36:13.000,0.063,-0.125,1.000,-1812.0,-3261.0,2605.5,22,
1_S5,09/05/2023,10:36:13.100,0.063,-0.063,0.938,,,,,
1_S5,09/05/2023,10:36:13.200,0.000,-0.063,1.000,,,,,
1_S5,09/05/2023,10:36:13.300,0.063,-0.063,1.000,,,,,
1_S5,09/05/2023,10:36:13.400,0.063,-0.063,1.000,,,,,
1_S5,09/05/2023,10:36:13.500,0.000,-0.063,0.938,-1834.5,-3244.5,2604.0,,
1_S5,09/05/2023,10:36:13.600,0.063,-0.125,1.000,,,,,
1_S5,09/05/2023,10:36:13.700,0.063,-0.063,0.938,,,,,
1_S5,09/05/2023,10:36:13.800,0.063,-0.063,0.938,,,,,
1_S5,09/05/2023,10:36:13.900,0.063,-0.063,0.938,,,,,
1_S5,09/05/2023,10:36:14.000,0.063,-0.125,1.000,-1822.5,-3253.5,2593.5,,
1_S5,09/05/2023,10:36:14.100,0.063,-0.125,1.000,,,,,
1_S5,09/05/2023,10:36:14.200,0.063,-0.063,1.000,,,,,
1_S5,09/05/2023,10:36:14.300,0.063,-0.063,1.000,,,,,
1_S5,09/05/2023,10:36:14.400,0.063,-0.063,1.000,,,,,
1_S5,09/05/2023,10:36:14.500,0.063,-0.063,1.000,-1836.0,-3249.0,2595.0,,
1_S5,09/05/2023,10:36:14.600,0.000,-0.125,1.000,,,,,
1_S5,09/05/2023,10:36:14.700,0.063,-0.063,1.000,,,,,
1_S5,09/05/2023,10:36:14.800,0.063,-0.063,0.938,,,,,
1_S5,09/05/2023,10:36:14.900,0.063,-0.063,0.938,,,,,
1_S5,09/05/2023,10:36:15.000,0.063,-0.063,0.938,-1806.0,-3250.5,2595.0,,
1_S5,09/05/2023,10:36:15.100,0.000,-0.063,1.000,,,,,
1_S5,09/05/2023,10:36:15.200,0.063,-0.125,1.000,,,,,
1_S5,09/05/2023,10:36:15.300,0.063,-0.125,1.000,,,,,
1_S5,09/05/2023,10:36:15.400,0.000,-0.063,1.000,,,,,
1_S5,09/05/2023,10:36:15.500,0.063,-0.063,0.938,-1821.0,-3253.5,2586.0,,
1_S5,09/05/2023,10:36:15.600,0.063,-0.125,1.000,,,,,
1_S5,09/05/2023,10:36:15.700,0.063,-0.063,1.000,,,,,
1_S5,09/05/2023,10:36:15.800,0.063,-0.125,0.938,,,,,
1_S5,09/05/2023,10:36:15.900,0.000,-0.063,1.000,,,,,
1_S5,09/05/2023,10:36:16.000,0.063,-0.125,1.000,-1830.0,-3256.5,2598.0,,
1_S5,09/05/2023,10:36:16.100,0.125,-0.063,1.000,,,,,
1_S5,09/05/2023,10:36:16.200,0.063,-0.063,1.000,,,,,
1_S5,09/05/2023,10:36:16.300,0.063,-0.063,1.000,,,,,
1_S5,09/05/2023,10:36:16.400,0.063,-0.063,1.000,,,,,
1_S5,09/05/2023,10:36:16.500,0.063,-0.063,1.000,-1839.0,-3247.5,2578.5,,
1_S5,09/05/2023,10:36:16.600,0.063,-0.063,1.000,,,,,
1_S5,09/05/2023,10:36:16.700,0.063,-0.125,1.000,,,,,
1_S5,09/05/2023,10:36:16.800,0.063,-0.063,1.000,,,,,
1_S5,09/05/2023,10:36:16.900,0.063,-0.125,1.000,,,,,
1_S5,09/05/2023,10:36:17.000,0.063,-0.125,1.000,-1837.5,-3261.0,2586.0,,
1_S5,09/05/2023,10:36:17.100,0.063,-0.119,0.938,,,,,
1_S5,09/05/2023,10:36:17.200,0.063,-0.075,0.950,,,,,
1_S5,09/05/2023,10:36:17.300,0.063,-0.088,1.000,,,,,
1_S5,09/05/2023,10:36:17.400,0.063,-0.050,1.000,,,,,
1_S5,09/05/2023,10:36:17.500,0.063,-0.094,0.969,-1821.0,-3264.0,2590.5,,
1_S5,09/05/2023,10:36:17.600,0.063,-0.100,0.975,,,,,
1_S5,09/05/2023,10:36:17.700,0.063,-0.081,1.000,,,,,
1_S5,09/05/2023,10:36:17.800,0.063,-0.113,1.000,,,,,
1_S5,09/05/2023,10:36:17.900,0.000,-0.063,0.938,,,,,
1_S5,09/05/2023,10:36:18.000,0.063,-0.125,0.938,-1830.0,-3256.5,2590.5,22,
1_S5,09/05/2023,10:36:18.100,0.063,0.000,1.000,,,,,
1_S5,09/05/2023,10:36:18.200,0.000,-0.063,1.000,,,,,
1_S5,09/05/2023,10:36:18.300,0.063,-0.125,1.000,,,,,
1_S5,09/05/2023,10:36:18.400,0.063,-0.125,0.938,,,,,
1_S5,09/05/2023,10:36:18.500,0.063,-0.063,1.000,-1831.5,-3258.0,2598.0,,
1_S5,09/05/2023,10:36:18.600,0.000,-0.125,0.938,,,,,
1_S5,09/05/2023,10:36:18.700,0.000,-0.125,1.000,,,,,
1_S5,09/05/2023,10:36:18.800,0.063,-0.125,1.000,,,,,
1_S5,09/05/2023,10:36:18.900,0.063,-0.125,1.000,,,,,
1_S5,09/05/2023,10:36:19.000,0.063,-0.125,1.000,-1825.5,-3252.0,2587.5,,
1_S5,09/05/2023,10:36:19.100,0.063,-0.063,0.938,,,,,
1_S5,09/05/2023,10:36:19.200,0.063,-0.125,1.000,,,,,
1_S5,09/05/2023,10:36:19.300,0.063,-0.125,1.000,,,,,
1_S5,09/05/2023,10:36:19.400,0.063,-0.063,1.063,,,,,
1_S5,09/05/2023,10:36:19.500,0.000,-0.063,1.000,-1825.5,-3259.5,2587.5,,
1_S5,09/05/2023,10:36:19.600,0.063,0.000,1.000,,,,,
1_S5,09/05/2023,10:36:19.700,0.063,-0.125,1.000,,,,,
1_S5,09/05/2023,10:36:19.800,0.063,-0.125,0.938,,,,,
1_S5,09/05/2023,10:36:19.900,0.063,-0.063,1.000,,,,,
1_S5,09/05/2023,10:36:20.000,0.063,0.000,1.000,-1824.0,-3256.5,2589.0,,
1_S5,09/05/2023,10:36:20.100,0.063,-0.063,1.000,,,,,
1_S5,09/05/2023,10:36:20.200,0.063,-0.063,1.000,,,,,
1_S5,09/05/2023,10:36:20.300,0.063,-0.125,1.000,,,,,
1_S5,09/05/2023,10:36:20.400,-0.063,0.063,0.875,,,,,
1_S5,09/05/2023,10:36:20.500,0.063,0.000,1.000,-1840.5,-3252.0,2589.0,,
1_S5,09/05/2023,10:36:20.600,0.063,-0.063,1.000,,,,,
1_S5,09/05/2023,10:36:20.700,0.063,-0.125,0.938,,,,,
1_S5,09/05/2023,10:36:20.800,0.125,-0.063,1.000,,,,,
1_S5,09/05/2023,10:36:20.900,0.063,-0.125,0.938,,,,,
1_S5,09/05/2023,10:36:21.000,0.063,-0.063,1.063,-1834.5,-3262.5,2584.5,,
1_S5,09/05/2023,10:36:21.100,0.000,-0.125,1.000,,,,,
1_S5,09/05/2023,10:36:21.200,0.000,-0.063,1.000,,,,,
1_S5,09/05/2023,10:36:21.300,0.063,-0.063,1.000,,,,,
1_S5,09/05/2023,10:36:21.400,0.125,-0.063,0.938,,,,,
1_S5,09/05/2023,10:36:21.500,0.063,-0.125,1.000,-1819.5,-3244.5,2587.5,,
1_S5,09/05/2023,10:36:21.600,0.063,-0.063,1.000,,,,,
1_S5,09/05/2023,10:36:21.700,0.063,-0.063,0.938,,,,,
1_S5,09/05/2023,10:36:21.800,0.063,-0.125,1.000,,,,,
1_S5,09/05/2023,10:36:21.900,0.000,-0.125,0.938,,,,,
1_S5,09/05/2023,10:36:22.000,0.063,0.000,1.000,-1845.0,-3262.5,2604.0,,
1_S5,09/05/2023,10:36:22.100,0.063,-0.119,1.000,,,,,
1_S5,09/05/2023,10:36:22.200,0.063,-0.063,1.000,,,,,
1_S5,09/05/2023,10:36:22.300,0.063,-0.081,1.000,,,,,
1_S5,09/05/2023,10:36:22.400,0.063,-0.100,0.975,,,,,
1_S5,09/05/2023,10:36:22.500,0.063,-0.063,0.969,-1846.5,-3252.0,2598.0,,
1_S5,09/05/2023,10:36:22.600,0.063,-0.100,1.000,,,,,
1_S5,09/05/2023,10:36:22.700,-0.025,0.050,1.088,,,,,
1_S5,09/05/2023,10:36:22.800,0.038,-0.025,0.975,,,,,
1_S5,09/05/2023,10:36:22.900,0.063,-0.063,1.063,,,,,
1_S5,09/05/2023,10:36:23.000,0.063,-0.125,0.938,-1833.0,-3234.0,2583.0,22,
1_S5,09/05/2023,10:36:23.100,0.000,-0.125,0.938,,,,,
1_S5,09/05/2023,10:36:23.200,0.000,-0.125,1.000,,,,,
1_S5,09/05/2023,10:36:23.300,0.000,-0.125,1.000,,,,,
1_S5,09/05/2023,10:36:23.400,0.063,-0.125,1.000,,,,,
1_S5,09/05/2023,10:36:23.500,0.063,-0.125,1.000,-1825.5,-3244.5,2592.0,,
1_S5,09/05/2023,10:36:23.600,0.063,-0.063,0.938,,,,,
1_S5,09/05/2023,10:36:23.700,0.063,-0.125,1.000,,,,,
1_S5,09/05/2023,10:36:23.800,0.063,-0.063,1.000,,,,,
1_S5,09/05/2023,10:36:23.900,0.063,-0.063,1.000,,,,,
1_S5,09/05/2023,10:36:24.000,0.000,-0.063,1.000,-1831.5,-3247.5,2592.0,,
1_S5,09/05/2023,10:36:24.100,0.063,-0.063,1.000,,,,,
1_S5,09/05/2023,10:36:24.200,0.063,-0.063,1.000,,,,,
1_S5,09/05/2023,10:36:24.300,0.063,-0.125,1.000,,,,,
1_S5,09/05/2023,10:36:24.400,0.063,-0.063,0.938,,,,,
1_S5,09/05/2023,10:36:24.500,0.063,-0.125,1.000,-1842.0,-3234.0,2572.5,,
1_S5,09/05/2023,10:36:24.600,0.063,-0.125,0.938,,,,,
1_S5,09/05/2023,10:36:24.700,0.063,-0.125,1.000,,,,,
1_S5,09/05/2023,10:36:24.800,0.063,0.000,1.000,,,,,
1_S5,09/05/2023,10:36:24.900,0.063,-0.063,1.000,,,,,
1_S5,09/05/2023,10:36:25.000,0.063,-0.063,1.000,-1846.5,-3252.0,2577.0,,
1_S5,09/05/2023,10:36:25.100,0.000,-0.063,0.938,,,,,
1_S5,09/05/2023,10:36:25.200,0.063,-0.063,1.000,,,,,
1_S5,09/05/2023,10:36:25.300,0.063,0.000,1.000,,,,,
1_S5,09/05/2023,10:36:25.400,0.000,-0.125,1.000,,,,,
1_S5,09/05/2023,10:36:25.500,0.063,-0.063,1.000,-1831.5,-3256.5,2599.5,,
1_S5,09/05/2023,10:36:25.600,0.125,0.000,1.000,,,,,
1_S5,09/05/2023,10:36:25.700,0.000,-0.063,1.000,,,,,
1_S5,09/05/2023,10:36:25.800,0.063,-0.125,0.938,,,,,
1_S5,09/05/2023,10:36:25.900,0.063,-0.063,1.000,,,,,
1_S5,09/05/2023,10:36:26.000,0.000,-0.063,0.938,-1839.0,-3246.0,2578.5,,
1_S5,09/05/2023,10:36:26.100,0.056,-0.119,1.000,,,,,
1_S5,09/05/2023,10:36:26.200,0.013,-0.050,1.000,,,,,
1_S5,09/05/2023,10:36:26.300,0.063,-0.038,0.982,,,,,
1_S5,09/05/2023,10:36:26.400,0.063,-0.125,0.938,,,,,
1_S5,09/05/2023,10:36:26.500,0.063,-0.125,0.969,-1836.0,-3249.0,2607.0,,
1_S5,09/05/2023,10:36:26.600,0.063,-0.088,1.000,,,,,
1_S5,09/05/2023,10:36:26.700,0.063,-0.063,1.000,,,,,
1_S5,09/05/2023,10:36:26.800,0.013,-0.113,1.000,,,,,
1_S5,09/05/2023,10:36:26.900,0.000,-0.125,0.938,,,,,
1_S5,09/05/2023,10:36:27.000,0.000,-0.063,0.938,-1831.5,-3264.0,2590.5,,
1_S5,09/05/2023,10:36:27.100,0.000,-0.125,1.000,,,,,
1_S5,09/05/2023,10:36:27.200,0.000,-0.125,1.000,,,,,
1_S5,09/05/2023,10:36:27.300,0.063,-0.125,1.000,,,,,
1_S5,09/05/2023,10:36:27.400,0.063,-0.125,1.000,,,,,
1_S5,09/05/2023,10:36:27.500,0.063,-0.063,1.063,-1842.0,-3250.5,2590.5,,
1_S5,09/05/2023,10:36:27.600,0.063,-0.125,1.000,,,,,
1_S5,09/05/2023,10:36:27.700,0.063,-0.063,1.000,,,,,
1_S5,09/05/2023,10:36:27.800,0.000,-0.063,1.000,,,,,
1_S5,09/05/2023,10:36:27.900,0.000,-0.063,0.938,,,,,
1_S5,09/05/2023,10:36:28.000,0.063,-0.125,0.938,-1827.0,-3255.0,2586.0,22,
1_S5,09/05/2023,10:36:28.100,0.063,-0.063,1.000,,,,,
1_S5,09/05/2023,10:36:28.200,0.063,-0.063,1.000,,,,,
1_S5,09/05/2023,10:36:28.300,0.063,-0.125,1.000,,,,,
1_S5,09/05/2023,10:36:28.400,0.063,0.000,1.000,,,,,
1_S5,09/05/2023,10:36:28.500,0.063,-0.125,1.000,-1840.5,-3255.0,2598.0,,
1_S5,09/05/2023,10:36:28.600,0.000,-0.063,0.938,,,,,
1_S5,09/05/2023,10:36:28.700,0.063,-0.063,1.000,,,,,
1_S5,09/05/2023,10:36:28.800,0.063,-0.063,1.000,,,,,
1_S5,09/05/2023,10:36:28.900,0.063,-0.125,1.000,,,,,
1_S5,09/05/2023,10:36:29.000,0.063,-0.063,1.000,-1840.5,-3255.0,2599.5,,
1_S5,09/05/2023,10:36:29.100,0.063,-0.063,1.000,,,,,
1_S5,09/05/2023,10:36:29.200,0.063,-0.063,0.938,,,,,
1_S5,09/05/2023,10:36:29.300,0.000,-0.125,1.063,,,,,
1_S5,09/05/2023,10:36:29.400,0.063,-0.125,1.000,,,,,
1_S5,09/05/2023,10:36:29.500,0.000,-0.125,1.000,-1821.0,-3277.5,2590.5,,
1_S5,09/05/2023,10:36:29.600,0.063,-0.063,1.000,,,,,
1_S5,09/05/2023,10:36:29.700,0.063,-0.063,0.938,,,,,
1_S5,09/05/2023,10:36:29.800,0.063,-0.125,1.000,,,,,
1_S5,09/05/2023,10:36:29.900,0.000,-0.063,0.938,,,,,
1_S5,09/05/2023,10:36:30.000,0.125,-0.125,1.000,-1845.0,-3247.5,2602.5,,
1_S5,09/05/2023,10:36:30.100,0.063,0.000,1.000,,,,,
1_S5,09/05/2023,10:36:30.200,0.000,-0.063,1.000,,,,,
1_S5,09/05/2023,10:36:30.300,0.000,-0.063,1.000,,,,,
1_S5,09/05/2023,10:36:30.400,0.000,-0.125,1.000,,,,,
1_S5,09/05/2023,10:36:30.500,0.000,-0.125,1.000,-1705.5,-3256.5,2578.5,,
1_S5,09/05/2023,10:36:30.600,0.063,-0.125,1.000,,,,,
1_S5,09/05/2023,10:36:30.700,0.000,-0.063,1.000,,,,,
1_S5,09/05/2023,10:36:30.800,0.000,-0.125,1.000,,,,,
1_S5,09/05/2023,10:36:30.900,-0.063,0.000,0.938,,,,,
1_S5,09/05/2023,10:36:31.000,-0.063,-0.063,0.938,-991.5,-3295.5,2551.5,,
1_S5,09/05/2023,10:36:31.100,-0.063,-0.006,0.944,,,,,
1_S5,09/05/2023,10:36:31.200,-0.063,-0.063,1.000,,,,,
1_S5,09/05/2023,10:36:31.300,-0.063,-0.044,0.982,,,,,
1_S5,09/05/2023,10:36:31.400,-0.063,0.000,0.963,,,,,
1_S5,09/05/2023,10:36:31.500,-0.063,0.000,1.000,-775.5,-3027.0,2640.0,,
1_S5,09/05/2023,10:36:31.600,-0.063,-0.075,1.000,,,,,
1_S5,09/05/2023,10:36:31.700,-0.063,-0.081,1.000,,,,,
1_S5,09/05/2023,10:36:31.800,-0.063,-0.013,1.000,,,,,
1_S5,09/05/2023,10:36:31.900,-0.063,0.000,1.000,,,,,
1_S5,09/05/2023,10:36:32.000,-0.063,0.000,0.938,-864.0,-3528.0,2770.5,,
1_S5,09/05/2023,10:36:32.100,-0.063,0.000,1.000,,,,,
1_S5,09/05/2023,10:36:32.200,0.000,-0.250,1.000,,,,,
1_S5,09/05/2023,10:36:32.300,-0.063,0.000,1.000,,,,,
1_S5,09/05/2023,10:36:32.400,-0.063,0.000,1.000,,,,,
1_S5,09/05/2023,10:36:32.500,-0.063,-0.063,1.000,-1384.5,-3082.5,2466.0,,
1_S5,09/05/2023,10:36:32.600,-0.063,-0.063,1.000,,,,,
1_S5,09/05/2023,10:36:32.700,-0.063,0.000,1.000,,,,,
1_S5,09/05/2023,10:36:32.800,-0.063,-0.063,1.000,,,,,
1_S5,09/05/2023,10:36:32.900,-0.063,-0.063,1.000,,,,,
1_S5,09/05/2023,10:36:33.000,-0.063,-0.125,1.000,-2010.0,-3337.5,2673.0,22,
1_S5,09/05/2023,10:36:33.100,-0.063,-0.063,1.000,,,,,
1_S5,09/05/2023,10:36:33.200,-0.063,0.000,1.000,,,,,
1_S5,09/05/2023,10:36:33.300,-0.063,-0.063,1.000,,,,,
1_S5,09/05/2023,10:36:33.400,-0.063,0.000,1.000,,,,,
1_S5,09/05/2023,10:36:33.500,-0.063,0.000,1.000,-3945.0,-4089.0,2521.5,,
1_S5,09/05/2023,10:36:33.600,-0.063,0.000,1.000,,,,,
1_S5,09/05/2023,10:36:33.700,-0.063,-0.125,1.000,,,,,
1_S5,09/05/2023,10:36:33.800,-0.063,-0.063,0.938,,,,,
1_S5,09/05/2023,10:36:33.900,-0.063,-0.125,1.000,,,,,
1_S5,09/05/2023,10:36:34.000,-0.063,-0.125,1.000,-2185.5,-3381.0,2623.5,,
1_S5,09/05/2023,10:36:34.100,-0.063,0.000,1.000,,,,,
1_S5,09/05/2023,10:36:34.200,-0.125,0.000,1.000,,,,,
1_S5,09/05/2023,10:36:34.300,-0.063,-0.125,1.000,,,,,
1_S5,09/05/2023,10:36:34.400,-0.063,-0.063,1.000,,,,,
1_S5,09/05/2023,10:36:34.500,-0.063,-0.063,1.000,-1338.0,-3294.0,2568.0,,
1_S5,09/05/2023,10:36:34.600,-0.063,-0.063,0.938,,,,,
1_S5,09/05/2023,10:36:34.700,-0.063,-0.063,1.000,,,,,
1_S5,09/05/2023,10:36:34.800,-0.063,-0.063,0.938,,,,,
1_S5,09/05/2023,10:36:34.900,-0.063,0.000,1.000,,,,,
1_S5,09/05/2023,10:36:35.000,-0.063,0.000,1.000,-123.0,-3529.5,2421.0,,
1_S5,09/05/2023,10:36:35.100,-0.063,-0.063,1.000,,,,,
1_S5,09/05/2023,10:36:35.200,-0.063,0.000,1.000,,,,,
1_S5,09/05/2023,10:36:35.300,-0.063,-0.063,1.063,,,,,
1_S5,09/05/2023,10:36:35.400,-0.063,0.000,1.000,,,,,
1_S5,09/05/2023,10:36:35.500,-0.063,-0.125,1.000,150.0,-3607.5,2302.5,,
1_S5,09/05/2023,10:36:35.600,-0.063,-0.063,1.000,,,,,
1_S5,09/05/2023,10:36:35.700,-0.063,-0.125,1.000,,,,,
1_S5,09/05/2023,10:36:35.800,-0.063,-0.125,1.000,,,,,
1_S5,09/05/2023,10:36:35.900,-0.063,-0.063,1.000,,,,,
1_S5,09/05/2023,10:36:36.000,-0.063,-0.063,0.938,-834.0,-3300.0,2553.0,,
1_S5,09/05/2023,10:36:36.100,-0.063,-0.106,1.000,,,,,
1_S5,09/05/2023,10:36:36.200,-0.063,0.050,0.988,,,,,
1_S5,09/05/2023,10:36:36.300,-0.063,-0.019,0.957,,,,,
1_S5,09/05/2023,10:36:36.400,-0.063,-0.038,1.000,,,,,
1_S5,09/05/2023,10:36:36.500,-0.063,0.000,1.000,-1431.0,-3085.5,2425.5,,
1_S5,09/05/2023,10:36:36.600,-0.063,-0.038,1.000,,,,,
1_S5,09/05/2023,10:36:36.700,-0.019,-0.106,1.000,,,,,
1_S5,09/05/2023,10:36:36.800,-0.050,-0.125,1.000,,,,,
1_S5,09/05/2023,10:36:36.900,-0.063,-0.063,0.938,,,,,
1_S5,09/05/2023,10:36:37.000,-0.063,-0.063,1.000,-1890.0,-3364.5,2718.0,,
1_S5,09/05/2023,10:36:37.100,-0.063,-0.063,1.000,,,,,
1_S5,09/05/2023,10:36:37.200,-0.063,-0.125,1.000,,,,,
1_S5,09/05/2023,10:36:37.300,-0.063,-0.063,0.938,,,,,
1_S5,09/05/2023,10:36:37.400,-0.063,0.000,1.000,,,,,
1_S5,09/05/2023,10:36:37.500,-0.063,-0.063,1.000,-4165.5,-4467.0,2821.5,,
1_S5,09/05/2023,10:36:37.600,-0.063,-0.063,1.000,,,,,
1_S5,09/05/2023,10:36:37.700,-0.063,0.000,1.000,,,,,
1_S5,09/05/2023,10:36:37.800,-0.063,0.000,1.000,,,,,
1_S5,09/05/2023,10:36:37.900,-0.063,-0.063,1.000,,,,,
1_S5,09/05/2023,10:36:38.000,-0.063,0.000,1.000,-2335.5,-3400.5,2596.5,22,
1_S5,09/05/2023,10:36:38.100,-0.063,-0.125,1.000,,,,,
1_S5,09/05/2023,10:36:38.200,0.000,-0.063,1.000,,,,,
1_S5,09/05/2023,10:36:38.300,-0.063,0.000,0.938,,,,,
1_S5,09/05/2023,10:36:38.400,0.000,0.063,1.000,,,,,
1_S5,09/05/2023,10:36:38.500,-0.063,-0.125,1.000,-976.5,-3213.0,2428.5,,
1_S5,09/05/2023,10:36:38.600,-0.063,0.000,1.000,,,,,
1_S5,09/05/2023,10:36:38.700,-0.063,-0.063,1.000,,,,,
1_S5,09/05/2023,10:36:38.800,-0.063,-0.063,1.000,,,,,
1_S5,09/05/2023,10:36:38.900,-0.063,0.000,0.938,,,,,
1_S5,09/05/2023,10:36:39.000,-0.063,-0.063,0.938,-174.0,-3453.0,2302.5,,
1_S5,09/05/2023,10:36:39.100,-0.063,0.000,1.000,,,,,
1_S5,09/05/2023,10:36:39.200,-0.063,-0.063,1.000,,,,,
1_S5,09/05/2023,10:36:39.300,-0.063,-0.063,0.938,,,,,
1_S5,09/05/2023,10:36:39.400,-0.063,0.000,0.938,,,,,
1_S5,09/05/2023,10:36:39.500,-0.063,-0.063,1.000,304.5,-4057.5,2655.0,,
1_S5,09/05/2023,10:36:39.600,-0.063,-0.063,0.938,,,,,
1_S5,09/05/2023,10:36:39.700,-0.063,0.000,1.000,,,,,
1_S5,09/05/2023,10:36:39.800,-0.063,-0.063,1.000,,,,,
1_S5,09/05/2023,10:36:39.900,-0.125,0.000,0.938,,,,,
1_S5,09/05/2023,10:36:40.000,-0.063,0.000,1.000,-778.5,-3465.0,2599.5,,
1_S5,09/05/2023,10:36:40.100,-0.063,-0.063,1.000,,,,,
1_S5,09/05/2023,10:36:40.200,0.000,0.000,1.000,,,,,
1_S5,09/05/2023,10:36:40.300,0.000,-0.063,1.000,,,,,
1_S5,09/05/2023,10:36:40.400,-0.063,-0.063,0.938,,,,,
1_S5,09/05/2023,10:36:40.500,-0.063,-0.063,1.000,-1405.5,-3067.5,2419.5,,
1_S5,09/05/2023,10:36:40.600,-0.063,0.000,1.000,,,,,
1_S5,09/05/2023,10:36:40.700,-0.063,-0.063,1.000,,,,,
1_S5,09/05/2023,10:36:40.800,-0.063,0.000,0.938,,,,,
1_S5,09/05/2023,10:36:40.900,-0.063,0.000,1.000,,,,,
1_S5,09/05/2023,10:36:41.000,-0.063,-0.125,1.000,-2038.5,-3244.5,2580.0,,
1_S5,09/05/2023,10:36:41.100,-0.063,0.000,1.000,,,,,
1_S5,09/05/2023,10:36:41.200,-0.063,0.000,1.013,,,,,
1_S5,09/05/2023,10:36:41.300,-0.063,-0.019,1.025,,,,,
1_S5,09/05/2023,10:36:41.400,-0.063,-0.063,0.938,,,,,
1_S5,09/05/2023,10:36:41.500,-0.031,-0.063,0.969,-5509.5,-5581.5,1645.5,,
1_S5,09/05/2023,10:36:41.600,-0.038,-0.063,1.000,,,,,
1_S5,09/05/2023,10:36:41.700,-0.063,-0.063,1.000,,,,,
1_S5,09/05/2023,10:36:41.800,-0.063,-0.063,1.000,,,,,
1_S5,09/05/2023,10:36:41.900,-0.063,-0.063,1.063,,,,,
1_S5,09/05/2023,10:36:42.000,-0.063,0.000,1.000,-2842.5,-3610.5,2514.0,,
1_S5,09/05/2023,10:36:42.100,-0.063,0.000,1.000,,,,,
1_S5,09/05/2023,10:36:42.200,-0.063,-0.125,1.000,,,,,
1_S5,09/05/2023,10:36:42.300,-0.063,-0.125,1.000,,,,,
1_S5,09/05/2023,10:36:42.400,-0.063,0.063,1.000,,,,,
1_S5,09/05/2023,10:36:42.500,0.000,-0.063,1.000,-817.5,-3165.0,2440.5,,
1_S5,09/05/2023,10:36:42.600,0.000,0.000,0.938,,,,,
1_S5,09/05/2023,10:36:42.700,-0.063,-0.063,1.000,,,,,
1_S5,09/05/2023,10:36:42.800,-0.063,0.000,1.000,,,,,
1_S5,09/05/2023,10:36:42.900,-0.063,-0.063,1.000,,,,,
1_S5,09/05/2023,10:36:43.000,-0.063,0.000,1.000,-118.5,-3394.5,2325.0,22,
1_S5,09/05/2023,10:36:43.100,-0.063,0.063,0.938,,,,,
1_S5,09/05/2023,10:36:43.200,-0.063,0.000,1.000,,,,,
1_S5,09/05/2023,10:36:43.300,-0.063,0.000,1.000,,,,,
1_S5,09/05/2023,10:36:43.400,-0.063,0.000,1.000,,,,,
1_S5,09/05/2023,10:36:43.500,-0.063,0.000,1.000,-220.5,-3946.5,2859.0,,
1_S5,09/05/2023,10:36:43.600,-0.063,-0.063,1.000,,,,,
1_S5,09/05/2023,10:36:43.700,-0.063,-0.063,0.938,,,,,
1_S5,09/05/2023,10:36:43.800,-0.063,0.000,1.000,,,,,
1_S5,09/05/2023,10:36:43.900,0.000,0.063,1.000,,,,,
1_S5,09/05/2023,10:36:44.000,-0.063,-0.063,1.000,-1180.5,-3036.0,2470.5,,
1_S5,09/05/2023,10:36:44.100,-0.063,-0.063,1.000,,,,,
1_S5,09/05/2023,10:36:44.200,-0.063,-0.063,1.000,,,,,
1_S5,09/05/2023,10:36:44.300,-0.063,0.000,0.938,,,,,
1_S5,09/05/2023,10:36:44.400,-0.063,-0.063,1.000,,,,,
1_S5,09/05/2023,10:36:44.500,-0.063,0.000,1.000,-1402.5,-3066.0,2424.0,,
1_S5,09/05/2023,10:36:44.600,-0.063,-0.063,1.000,,,,,
1_S5,09/05/2023,10:36:44.700,-0.063,-0.063,1.000,,,,,
1_S5,09/05/2023,10:36:44.800,-0.063,0.000,1.063,,,,,
1_S5,09/05/2023,10:36:44.900,-0.063,-0.125,1.000,,,,,
1_S5,09/05/2023,10:36:45.000,-0.063,-0.063,0.938,-2308.5,-3441.0,2761.5,,
1_S5,09/05/2023,10:36:45.100,-0.063,-0.006,0.944,,,,,
1_S5,09/05/2023,10:36:45.200,-0.063,-0.075,1.000,,,,,
1_S5,09/05/2023,10:36:45.300,-0.063,-0.125,1.000,,,,,
1_S5,09/05/2023,10:36:45.400,-0.063,-0.100,1.000,,,,,
1_S5,09/05/2023,10:36:45.500,-0.063,-0.063,1.000,-3442.5,-4029.0,2907.0,,
1_S5,09/05/2023,10:36:45.600,-0.063,-0.025,0.963,,,,,
1_S5,09/05/2023,10:36:45.700,-0.063,-0.088,0.982,,,,,
1_S5,09/05/2023,10:36:45.800,-0.063,-0.075,1.000,,,,,
1_S5,09/05/2023,10:36:45.900,-0.063,-0.063,1.000,,,,,
1_S5,09/05/2023,10:36:46.000,0.000,-0.063,1.000,-2185.5,-3345.0,2566.5,,
1_S5,09/05/2023,10:36:46.100,-0.125,-0.063,0.938,,,,,
1_S5,09/05/2023,10:36:46.200,-0.063,-0.063,1.000,,,,,
1_S5,09/05/2023,10:36:46.300,-0.063,-0.063,0.938,,,,,
1_S5,09/05/2023,10:36:46.400,-0.063,-0.063,1.000,,,,,
1_S5,09/05/2023,10:36:46.500,0.000,-0.063,1.000,-744.0,-3436.5,2647.5,,
1_S5,09/05/2023,10:36:46.600,-0.063,0.000,1.000,,,,,
1_S5,09/05/2023,10:36:46.700,-0.063,0.000,0.938,,,,,
1_S5,09/05/2023,10:36:46.800,-0.063,0.000,1.000,,,,,
1_S5,09/05/2023,10:36:46.900,-0.063,-0.063,0.938,,,,,
1_S5,09/05/2023,10:36:47.000,-0.063,-0.063,0.938,24.0,-3549.0,2350.5,,
1_S5,09/05/2023,10:36:47.100,-0.063,0.000,1.000,,,,,
1_S5,09/05/2023,10:36:47.200,-0.063,-0.063,1.000,,,,,
1_S5,09/05/2023,10:36:47.300,-0.063,-0.063,1.000,,,,,
1_S5,09/05/2023,10:36:47.400,-0.063,-0.063,1.000,,,,,
1_S5,09/05/2023,10:36:47.500,-0.063,-0.063,1.000,-16.5,-3777.0,2539.5,,
1_S5,09/05/2023,10:36:47.600,0.000,-0.063,1.000,,,,,
1_S5,09/05/2023,10:36:47.700,-0.063,-0.063,1.000,,,,,
1_S5,09/05/2023,10:36:47.800,-0.063,0.000,0.938,,,,,
1_S5,09/05/2023,10:36:47.900,-0.063,-0.063,1.000,,,,,
1_S5,09/05/2023,10:36:48.000,-0.063,-0.063,1.000,-1345.5,-3042.0,2436.0,22,
1_S5,09/05/2023,10:36:48.100,-0.063,-0.063,1.000,,,,,
1_S5,09/05/2023,10:36:48.200,-0.063,-0.063,1.000,,,,,
1_S5,09/05/2023,10:36:48.300,-0.063,0.000,1.000,,,,,
1_S5,09/05/2023,10:36:48.400,-0.063,-0.063,1.000,,,,,
1_S5,09/05/2023,10:36:48.500,-0.063,0.000,0.938,-1618.5,-3082.5,2487.0,,
1_S5,09/05/2023,10:36:48.600,-0.063,-0.063,0.938,,,,,
1_S5,09/05/2023,10:36:48.700,-0.063,-0.125,1.000,,,,,
1_S5,09/05/2023,10:36:48.800,-0.063,-0.063,1.000,,,,,
1_S5,09/05/2023,10:36:48.900,-0.063,-0.063,1.000,,,,,
1_S5,09/05/2023,10:36:49.000,-0.063,-0.063,1.000,-3880.5,-3984.0,2566.5,,
1_S5,09/05/2023,10:36:49.100,-0.063,0.000,1.000,,,,,
1_S5,09/05/2023,10:36:49.200,-0.063,0.000,1.000,,,,,
1_S5,09/05/2023,10:36:49.300,-0.063,-0.125,1.000,,,,,
1_S5,09/05/2023,10:36:49.400,-0.063,0.000,1.000,,,,,
1_S5,09/05/2023,10:36:49.500,-0.063,0.000,1.000,-4438.5,-4350.0,1587.0,,
1_S5,09/05/2023,10:36:49.600,0.000,-0.125,1.000,,,,,
1_S5,09/05/2023,10:36:49.700,-0.063,-0.125,1.125,,,,,
1_S5,09/05/2023,10:36:49.800,0.000,0.063,1.000,,,,,
1_S5,09/05/2023,10:36:49.900,-0.063,-0.063,1.000,,,,,
1_S5,09/05/2023,10:36:50.000,-0.063,0.000,1.000,-2196.0,-3531.0,2794.5,,
1_S5,09/05/2023,10:36:50.100,-0.063,-0.006,1.000,,,,,
1_S5,09/05/2023,10:36:50.200,-0.063,-0.063,0.988,,,,,
1_S5,09/05/2023,10:36:50.300,-0.063,-0.044,0.957,,,,,
1_S5,09/05/2023,10:36:50.400,-0.063,-0.025,1.000,,,,,
1_S5,09/05/2023,10:36:50.500,-0.063,-0.094,0.969,-198.0,-3790.5,2764.5,,
1_S5,09/05/2023,10:36:50.600,-0.063,-0.050,0.975,,,,,
1_S5,09/05/2023,10:36:50.700,-0.063,-0.044,1.000,,,,,
1_S5,09/05/2023,10:36:50.800,-0.063,-0.063,1.000,,,,,
1_S5,09/05/2023,10:36:50.900,-0.063,-0.063,1.000,,,,,
1_S5,09/05/2023,10:36:51.000,-0.063,-0.063,1.000,277.5,-3826.5,2460.0,,
1_S5,09/05/2023,10:36:51.100,-0.063,-0.063,1.000,,,,,
1_S5,09/05/2023,10:36:51.200,-0.063,0.000,1.000,,,,,
1_S5,09/05/2023,10:36:51.300,-0.063,0.000,1.000,,,,,
1_S5,09/05/2023,10:36:51.400,0.000,-0.125,1.000,,,,,
1_S5,09/05/2023,10:36:51.500,-0.063,-0.063,1.000,138.0,-3843.0,2592.0,,
1_S5,09/05/2023,10:36:51.600,-0.063,-0.063,1.063,,,,,
1_S5,09/05/2023,10:36:51.700,-0.063,0.000,1.000,,,,,
1_S5,09/05/2023,10:36:51.800,-0.063,-0.063,1.000,,,,,
1_S5,09/05/2023,10:36:51.900,-0.063,-0.063,0.938,,,,,
1_S5,09/05/2023,10:36:52.000,-0.063,-0.063,1.000,-1443.0,-3511.5,2847.0,,
1_S5,09/05/2023,10:36:52.100,0.063,0.000,1.000,,,,,
1_S5,09/05/2023,10:36:52.200,-0.063,-0.063,1.000,,,,,
1_S5,09/05/2023,10:36:52.300,-0.063,-0.063,1.000,,,,,
1_S5,09/05/2023,10:36:52.400,-0.063,0.000,1.000,,,,,
1_S5,09/05/2023,10:36:52.500,-0.063,-0.063,1.000,-1494.0,-3285.0,2628.0,,
1_S5,09/05/2023,10:36:52.600,0.000,-0.125,1.000,,,,,
1_S5,09/05/2023,10:36:52.700,0.000,-0.125,0.938,,,,,
1_S5,09/05/2023,10:36:52.800,-0.063,-0.063,1.000,,,,,
1_S5,09/05/2023,10:36:52.900,-0.063,-0.063,1.000,,,,,
1_S5,09/05/2023,10:36:53.000,-0.063,-0.063,1.000,-2308.5,-3327.0,2614.5,22,
1_S5,09/05/2023,10:36:53.100,-0.063,-0.125,0.938,,,,,
1_S5,09/05/2023,10:36:53.200,-0.063,0.000,1.000,,,,,
1_S5,09/05/2023,10:36:53.300,-0.063,-0.063,1.000,,,,,
1_S5,09/05/2023,10:36:53.400,-0.063,-0.063,1.000,,,,,
1_S5,09/05/2023,10:36:53.500,0.000,0.000,1.000,-4821.0,-5002.5,2698.5,,
1_S5,09/05/2023,10:36:53.600,-0.625,-0.063,1.000,,,,,
1_S5,09/05/2023,10:36:53.700,-0.063,-0.125,1.000,,,,,
1_S5,09/05/2023,10:36:53.800,-0.063,-0.063,1.000,,,,,
1_S5,09/05/2023,10:36:53.900,-0.063,0.063,1.063,,,,,
1_S5,09/05/2023,10:36:54.000,-0.063,0.000,1.000,-2241.0,-3396.0,2620.5,,
1_S5,09/05/2023,10:36:54.100,-0.063,-0.063,1.000,,,,,
1_S5,09/05/2023,10:36:54.200,-0.063,-0.063,1.000,,,,,
1_S5,09/05/2023,10:36:54.300,-0.063,-0.063,1.000,,,,,
1_S5,09/05/2023,10:36:54.400,0.000,-0.125,0.938,,,,,
1_S5,09/05/2023,10:36:54.500,0.000,-0.063,1.000,-216.0,-3544.5,2436.0,,
1_S5,09/05/2023,10:36:54.600,-0.063,-0.063,1.000,,,,,
1_S5,09/05/2023,10:36:54.700,-0.063,-0.063,1.000,,,,,
1_S5,09/05/2023,10:36:54.800,-0.063,0.000,1.000,,,,,
1_S5,09/05/2023,10:36:54.900,-0.063,-0.063,0.938,,,,,
1_S5,09/05/2023,10:36:55.000,-0.063,-0.063,1.000,90.0,-3525.0,2331.0,,
1_S5,09/05/2023,10:36:55.100,-0.056,-0.069,1.057,,,,,
1_S5,09/05/2023,10:36:55.200,-0.013,-0.113,1.000,,,,,
1_S5,09/05/2023,10:36:55.300,-0.063,-0.063,1.000,,,,,
1_S5,09/05/2023,10:36:55.400,-0.063,-0.063,0.975,,,,,
1_S5,09/05/2023,10:36:55.500,-0.063,-0.031,0.938,265.5,-3681.0,2952.0,,
1_S5,09/05/2023,10:36:55.600,-0.025,0.000,0.975,,,,,
1_S5,09/05/2023,10:36:55.700,0.000,-0.088,1.000,,,,,
1_S5,09/05/2023,10:36:55.800,-0.050,-0.025,1.000,,,,,
1_S5,09/05/2023,10:36:55.900,0.000,-0.125,0.938,,,,,
1_S5,09/05/2023,10:36:56.000,0.000,-0.125,1.000,-1315.5,-3061.5,2409.0,,
1_S5,09/05/2023,10:36:56.100,-0.063,-0.125,1.000,,,,,
1_S5,09/05/2023,10:36:56.200,-0.063,-0.063,1.000,,,,,
1_S5,09/05/2023,10:36:56.300,0.000,0.000,0.938,,,,,
1_S5,09/05/2023,10:36:56.400,-0.063,-0.063,1.000,,,,,
1_S5,09/05/2023,10:36:56.500,-0.063,-0.125,1.000,-1693.5,-3270.0,2607.0,,
1_S5,09/05/2023,10:36:56.600,0.000,-0.125,1.000,,,,,
1_S5,09/05/2023,10:36:56.700,-0.063,-0.125,1.063,,,,,
1_S5,09/05/2023,10:36:56.800,0.000,-0.063,0.938,,,,,
1_S5,09/05/2023,10:36:56.900,-0.063,0.063,1.000,,,,,
1_S5,09/05/2023,10:36:57.000,-0.063,-0.125,0.938,-3729.0,-4218.0,2929.5,,
1_S5,09/05/2023,10:36:57.100,-0.063,-0.063,1.000,,,,,
1_S5,09/05/2023,10:36:57.200,0.000,-0.063,1.000,,,,,
1_S5,09/05/2023,10:36:57.300,-0.063,-0.063,1.000,,,,,
1_S5,09/05/2023,10:36:57.400,-0.063,-0.125,0.938,,,,,
1_S5,09/05/2023,10:36:57.500,0.000,-0.063,1.000,-3289.5,-3678.0,2457.0,,
1_S5,09/05/2023,10:36:57.600,-0.063,0.000,0.938,,,,,
1_S5,09/05/2023,10:36:57.700,-0.063,-0.063,1.063,,,,,
1_S5,09/05/2023,10:36:57.800,-0.063,0.000,1.000,,,,,
1_S5,09/05/2023,10:36:57.900,-0.188,0.125,1.000,,,,,
1_S5,09/05/2023,10:36:58.000,-0.063,-0.063,0.938,-1713.0,-3240.0,2523.0,22,
1_S5,09/05/2023,10:36:58.100,-0.063,-0.125,1.000,,,,,
1_S5,09/05/2023,10:36:58.200,-0.125,-0.063,0.938,,,,,
1_S5,09/05/2023,10:36:58.300,-0.063,-0.063,0.938,,,,,
1_S5,09/05/2023,10:36:58.400,0.000,-0.063,1.000,,,,,
1_S5,09/05/2023,10:36:58.500,-0.063,-0.063,1.000,97.5,-3738.0,2445.0,,
1_S5,09/05/2023,10:36:58.600,-0.063,-0.063,1.000,,,,,
1_S5,09/05/2023,10:36:58.700,-0.063,0.000,1.000,,,,,
1_S5,09/05/2023,10:36:58.800,-0.063,-0.063,1.063,,,,,
1_S5,09/05/2023,10:36:58.900,-0.063,-0.063,1.000,,,,,
1_S5,09/05/2023,10:36:59.000,-0.063,-0.063,1.000,367.5,-3952.5,2407.5,,
1_S5,09/05/2023,10:36:59.100,-0.056,-0.056,1.000,,,,,
1_S5,09/05/2023,10:36:59.200,-0.013,-0.013,1.000,,,,,
1_S5,09/05/2023,10:36:59.300,-0.044,-0.063,0.982,,,,,
1_S5,09/05/2023,10:36:59.400,-0.025,-0.038,0.963,,,,,
1_S5,09/05/2023,10:36:59.500,-0.094,-0.031,1.000,-1462.5,-3229.5,2545.5,,
1_S5,09/05/2023,10:36:59.600,-0.088,-0.025,1.000,,,,,
1_S5,09/05/2023,10:36:59.700,-0.019,-0.044,1.000,,,,,
1_S5,09/05/2023,10:36:59.800,0.000,-0.113,1.000,,,,,
1_S5,09/05/2023,10:36:59.900,-0.125,-0.063,1.000,,,,,
1_S5,09/05/2023,10:37:00.000,0.000,-0.063,1.000,-2748.0,-3450.0,2572.5,,
1_S5,09/05/2023,10:37:00.100,0.000,-0.063,0.938,,,,,
1_S5,09/05/2023,10:37:00.200,-0.063,0.000,1.000,,,,,
1_S5,09/05/2023,10:37:00.300,-0.063,-0.125,1.000,,,,,
1_S5,09/05/2023,10:37:00.400,-0.063,-0.125,1.000,,,,,
1_S5,09/05/2023,10:37:00.500,-0.063,0.000,1.000,-4698.0,-4902.0,943.5,,
1_S5,09/05/2023,10:37:00.600,-0.063,-0.063,1.000,,,,,
1_S5,09/05/2023,10:37:00.700,-0.063,-0.125,1.000,,,,,
1_S5,09/05/2023,10:37:00.800,-0.063,-0.063,0.938,,,,,
1_S5,09/05/2023,10:37:00.900,-0.063,-0.063,1.000,,,,,
1_S5,09/05/2023,10:37:01.000,-0.063,-0.125,1.000,-1371.0,-3076.5,2410.5,,
1_S5,09/05/2023,10:37:01.100,0.000,-0.063,1.000,,,,,
1_S5,09/05/2023,10:37:01.200,-0.063,-0.063,1.000,,,,,
1_S5,09/05/2023,10:37:01.300,-0.063,-0.063,0.938,,,,,
1_S5,09/05/2023,10:37:01.400,-0.063,-0.125,1.000,,,,,
1_S5,09/05/2023,10:37:01.500,-0.063,-0.063,1.000,-318.0,-3412.5,2383.5,,
1_S5,09/05/2023,10:37:01.600,-0.063,-0.063,1.000,,,,,
1_S5,09/05/2023,10:37:01.700,-0.063,0.000,1.000,,,,,
1_S5,09/05/2023,10:37:01.800,-0.063,-0.063,1.000,,,,,
1_S5,09/05/2023,10:37:01.900,-0.063,0.000,1.000,,,,,
1_S5,09/05/2023,10:37:02.000,0.000,-0.063,0.938,-366.0,-3895.5,2814.0,,
1_S5,09/05/2023,10:37:02.100,0.000,0.000,1.000,,,,,
1_S5,09/05/2023,10:37:02.200,0.000,-0.063,1.000,,,,,
1_S5,09/05/2023,10:37:02.300,0.000,-0.063,1.000,,,,,
1_S5,09/05/2023,10:37:02.400,0.000,0.000,1.000,,,,,
1_S5,09/05/2023,10:37:02.500,-0.063,-0.125,1.000,-1384.5,-3531.0,2892.0,,
1_S5,09/05/2023,10:37:02.600,-0.063,-0.063,0.938,,,,,
1_S5,09/05/2023,10:37:02.700,-0.063,0.000,1.000,,,,,
1_S5,09/05/2023,10:37:02.800,-0.063,-0.063,1.000,,,,,
1_S5,09/05/2023,10:37:02.900,-0.063,-0.125,1.000,,,,,
1_S5,09/05/2023,10:37:03.000,-0.063,-0.063,1.000,-1441.5,-3102.0,2446.5,22,
1_S5,09/05/2023,10:37:03.100,-0.063,-0.063,1.000,,,,,
1_S5,09/05/2023,10:37:03.200,-0.063,-0.063,1.000,,,,,
1_S5,09/05/2023,10:37:03.300,-0.063,-0.125,1.000,,,,,
1_S5,09/05/2023,10:37:03.400,-0.063,-0.063,1.000,,,,,
1_S5,09/05/2023,10:37:03.500,-0.063,-0.063,1.000,-2028.0,-3391.5,2745.0,,
1_S5,09/05/2023,10:37:03.600,-0.063,-0.063,1.000,,,,,
1_S5,09/05/2023,10:37:03.700,-0.063,-0.125,0.938,,,,,
1_S5,09/05/2023,10:37:03.800,-0.063,-0.063,1.000,,,,,
1_S5,09/05/2023,10:37:03.900,-0.063,-0.063,1.000,,,,,
1_S5,09/05/2023,10:37:04.000,0.000,0.000,1.000,-4272.0,-4579.5,2970.0,,
1_S5,09/05/2023,10:37:04.100,-0.063,-0.006,1.000,,,,,
1_S5,09/05/2023,10:37:04.200,-0.050,-0.075,1.000,,,,,
1_S5,09/05/2023,10:37:04.300,-0.019,-0.125,1.000,,,,,
1_S5,09/05/2023,10:37:04.400,-0.063,-0.075,1.000,,,,,
1_S5,09/05/2023,10:37:04.500,-0.063,-0.031,1.032,-2488.5,-3400.5,2566.5,,
1_S5,09/05/2023,10:37:04.600,-0.063,-0.025,1.025,,,,,
1_S5,09/05/2023,10:37:04.700,-0.063,0.000,1.000,,,,,
1_S5,09/05/2023,10:37:04.800,-0.063,-0.100,1.000,,,,,
1_S5,09/05/2023,10:37:04.900,-0.063,-0.125,1.063,,,,,
1_S5,09/05/2023,10:37:05.000,-0.063,0.000,1.000,-1050.0,-3430.5,2572.5,,
1_S5,09/05/2023,10:37:05.100,0.000,-0.125,1.000,,,,,
1_S5,09/05/2023,10:37:05.200,-0.063,-0.063,0.938,,,,,
1_S5,09/05/2023,10:37:05.300,-0.063,0.063,1.063,,,,,
1_S5,09/05/2023,10:37:05.400,-0.063,-0.063,1.000,,,,,
1_S5,09/05/2023,10:37:05.500,-0.063,-0.063,1.000,84.0,-3802.5,2529.0,,
1_S5,09/05/2023,10:37:05.600,-0.063,-0.063,1.063,,,,,
1_S5,09/05/2023,10:37:05.700,-0.063,-0.063,1.000,,,,,
1_S5,09/05/2023,10:37:05.800,-0.063,-0.063,0.938,,,,,
1_S5,09/05/2023,10:37:05.900,-0.063,-0.063,1.000,,,,,
1_S5,09/05/2023,10:37:06.000,-0.063,0.000,1.000,-454.5,-3883.5,2850.0,,
1_S5,09/05/2023,10:37:06.100,-0.063,-0.063,1.000,,,,,
1_S5,09/05/2023,10:37:06.200,-0.063,-0.063,0.938,,,,,
1_S5,09/05/2023,10:37:06.300,-0.063,0.000,1.000,,,,,
1_S5,09/05/2023,10:37:06.400,-0.063,-0.063,1.000,,,,,
1_S5,09/05/2023,10:37:06.500,-0.063,-0.125,1.000,-1470.0,-3382.5,2733.0,,
1_S5,09/05/2023,10:37:06.600,-0.063,-0.063,1.000,,,,,
1_S5,09/05/2023,10:37:06.700,-0.063,-0.125,1.000,,,,,
1_S5,09/05/2023,10:37:06.800,-0.063,-0.125,1.000,,,,,
1_S5,09/05/2023,10:37:06.900,-0.063,0.000,1.000,,,,,
1_S5,09/05/2023,10:37:07.000,-0.063,-0.063,1.000,-1516.5,-3121.5,2448.0,,
1_S5,09/05/2023,10:37:07.100,-0.063,-0.063,1.000,,,,,
1_S5,09/05/2023,10:37:07.200,0.000,0.000,1.000,,,,,
1_S5,09/05/2023,10:37:07.300,-0.063,-0.125,1.000,,,,,
1_S5,09/05/2023,10:37:07.400,-0.063,0.063,1.000,,,,,
1_S5,09/05/2023,10:37:07.500,-0.063,-0.063,1.000,-2104.5,-3525.0,2820.0,,
1_S5,09/05/2023,10:37:07.600,-0.063,0.000,1.000,,,,,
1_S5,09/05/2023,10:37:07.700,-0.063,-0.063,1.000,,,,,
1_S5,09/05/2023,10:37:07.800,-0.063,-0.063,1.000,,,,,
1_S5,09/05/2023,10:37:07.900,-0.063,-0.063,1.000,,,,,
1_S5,09/05/2023,10:37:08.000,-0.063,0.000,1.000,-3006.0,-3976.5,3048.0,22,
1_S5,09/05/2023,10:37:08.100,-0.063,-0.063,1.000,,,,,
1_S5,09/05/2023,10:37:08.200,-0.063,-0.063,1.000,,,,,
1_S5,09/05/2023,10:37:08.300,-0.063,-0.063,1.000,,,,,
1_S5,09/05/2023,10:37:08.400,-0.063,-0.063,1.000,,,,,
1_S5,09/05/2023,10:37:08.500,-0.125,-0.063,1.000,-2044.5,-3277.5,2547.0,,
1_S5,09/05/2023,10:37:08.600,-0.063,-0.063,1.000,,,,,
1_S5,09/05/2023,10:37:08.700,-0.063,-0.125,1.063,,,,,
1_S5,09/05/2023,10:37:08.800,0.000,-0.125,1.000,,,,,
1_S5,09/05/2023,10:37:08.900,-0.063,-0.125,1.000,,,,,
1_S5,09/05/2023,10:37:09.000,-0.063,-0.063,1.000,-1093.5,-3423.0,2563.5,,
1_S5,09/05/2023,10:37:09.100,-0.063,-0.063,1.000,,,,,
1_S5,09/05/2023,10:37:09.200,-0.063,-0.075,1.000,,,,,
1_S5,09/05/2023,10:37:09.300,-0.063,-0.106,1.000,,,,,
1_S5,09/05/2023,10:37:09.400,-0.063,-0.038,1.000,,,,,
1_S5,09/05/2023,10:37:09.500,-0.063,-0.031,1.000,-120.0,-3661.5,2494.5,,
1_S5,09/05/2023,10:37:09.600,-0.063,-0.063,1.000,,,,,
1_S5,09/05/2023,10:37:09.700,-0.063,-0.063,1.000,,,,,
1_S5,09/05/2023,10:37:09.800,-0.063,-0.063,1.000,,,,,
1_S5,09/05/2023,10:37:09.900,-0.063,-0.063,1.000,,,,,
1_S5,09/05/2023,10:37:10.000,-0.063,-0.125,1.000,-130.5,-4074.0,2967.0,,
1_S5,09/05/2023,10:37:10.100,-0.063,-0.063,1.000,,,,,
1_S5,09/05/2023,10:37:10.200,-0.063,-0.125,1.000,,,,,
1_S5,09/05/2023,10:37:10.300,-0.063,-0.063,0.938,,,,,
1_S5,09/05/2023,10:37:10.400,0.000,-0.125,1.000,,,,,
1_S5,09/05/2023,10:37:10.500,-0.063,-0.063,0.938,-1113.0,-3927.0,3127.5,,
1_S5,09/05/2023,10:37:10.600,-0.063,-0.063,1.000,,,,,
1_S5,09/05/2023,10:37:10.700,-0.063,-0.063,1.063,,,,,
1_S5,09/05/2023,10:37:10.800,-0.063,-0.063,1.000,,,,,
1_S5,09/05/2023,10:37:10.900,-0.063,-0.063,0.938,,,,,
1_S5,09/05/2023,10:37:11.000,-0.063,-0.063,1.000,-1489.5,-3211.5,2548.5,,
1_S5,09/05/2023,10:37:11.100,-0.063,-0.063,1.000,,,,,
1_S5,09/05/2023,10:37:11.200,-0.063,-0.063,1.000,,,,,
1_S5,09/05/2023,10:37:11.300,-0.063,0.000,0.938,,,,,
1_S5,09/05/2023,10:37:11.400,-0.063,0.000,1.000,,,,,
1_S5,09/05/2023,10:37:11.500,-0.063,-0.063,1.000,-1837.5,-3237.0,2584.5,,
1_S5,09/05/2023,10:37:11.600,0.000,-0.063,1.000,,,,,
1_S5,09/05/2023,10:37:11.700,0.000,-0.125,1.000,,,,,
1_S5,09/05/2023,10:37:11.800,-0.063,-0.063,0.938,,,,,
1_S5,09/05/2023,10:37:11.900,-0.063,-0.063,1.000,,,,,
1_S5,09/05/2023,10:37:12.000,-0.063,-0.063,1.000,-3789.0,-4368.0,3058.5,,
1_S5,09/05/2023,10:37:12.100,-0.063,-0.063,1.000,,,,,
1_S5,09/05/2023,10:37:12.200,-0.063,-0.063,1.000,,,,,
1_S5,09/05/2023,10:37:12.300,-0.063,-0.063,1.000,,,,,
1_S5,09/05/2023,10:37:12.400,-0.063,-0.063,1.000,,,,,
1_S5,09/05/2023,10:37:12.500,-0.063,0.000,1.000,-2895.0,-3892.5,2922.0,,
1_S5,09/05/2023,10:37:12.600,0.000,-0.063,1.000,,,,,
1_S5,09/05/2023,10:37:12.700,-0.063,-0.063,1.000,,,,,
1_S5,09/05/2023,10:37:12.800,-0.063,0.000,1.000,,,,,
1_S5,09/05/2023,10:37:12.900,-0.063,-0.063,1.000,,,,,
1_S5,09/05/2023,10:37:13.000,-0.063,0.000,1.000,-1521.0,-3186.0,2473.5,22,
1_S5,09/05/2023,10:37:13.100,-0.063,-0.006,0.944,,,,,
1_S5,09/05/2023,10:37:13.200,-0.063,-0.050,1.000,,,,,
1_S5,09/05/2023,10:37:13.300,-0.044,-0.019,1.000,,,,,
1_S5,09/05/2023,10:37:13.400,-0.025,-0.063,1.000,,,,,
1_S5,09/05/2023,10:37:13.500,-0.063,-0.031,1.000,-76.5,-3621.0,2436.0,,
1_S5,09/05/2023,10:37:13.600,-0.063,0.000,1.000,,,,,
1_S5,09/05/2023,10:37:13.700,-0.063,-0.044,1.000,,,,,
1_S5,09/05/2023,10:37:13.800,-0.013,-0.013,1.000,,,,,
1_S5,09/05/2023,10:37:13.900,-0.063,-0.063,0.938,,,,,
1_S5,09/05/2023,10:37:14.000,-0.063,-0.125,1.000,162.0,-4183.5,2946.0,,
1_S5,09/05/2023,10:37:14.100,-0.063,-0.063,1.000,,,,,
1_S5,09/05/2023,10:37:14.200,-0.063,-0.125,1.000,,,,,
1_S5,09/05/2023,10:37:14.300,-0.063,0.000,1.000,,,,,
1_S5,09/05/2023,10:37:14.400,-0.063,-0.063,1.000,,,,,
1_S5,09/05/2023,10:37:14.500,-0.063,-0.063,1.000,-1075.5,-3922.5,3066.0,,
1_S5,09/05/2023,10:37:14.600,0.000,-0.125,0.938,,,,,
1_S5,09/05/2023,10:37:14.700,-0.063,0.063,1.000,,,,,
1_S5,09/05/2023,10:37:14.800,-0.063,-0.063,1.000,,,,,
1_S5,09/05/2023,10:37:14.900,0.000,0.000,1.000,,,,,
1_S5,09/05/2023,10:37:15.000,-0.063,0.000,1.000,-1465.5,-3097.5,2428.5,,
1_S5,09/05/2023,10:37:15.100,-0.063,-0.063,0.938,,,,,
1_S5,09/05/2023,10:37:15.200,-0.063,0.063,1.000,,,,,
1_S5,09/05/2023,10:37:15.300,-0.063,-0.063,1.000,,,,,
1_S5,09/05/2023,10:37:15.400,-0.063,-0.063,1.000,,,,,
1_S5,09/05/2023,10:37:15.500,0.000,0.000,1.000,-1969.5,-3403.5,2716.5,,
1_S5,09/05/2023,10:37:15.600,-0.063,-0.063,1.000,,,,,
1_S5,09/05/2023,10:37:15.700,-0.063,-0.063,1.000,,,,,
1_S5,09/05/2023,10:37:15.800,-0.063,-0.063,1.000,,,,,
1_S5,09/05/2023,10:37:15.900,-0.063,-0.063,1.000,,,,,
1_S5,09/05/2023,10:37:16.000,-0.063,-0.063,1.000,-4213.5,-4566.0,3003.0,,
1_S5,09/05/2023,10:37:16.100,-0.063,-0.125,1.000,,,,,
1_S5,09/05/2023,10:37:16.200,-0.063,-0.125,1.000,,,,,
1_S5,09/05/2023,10:37:16.300,-0.063,-0.125,1.063,,,,,
1_S5,09/05/2023,10:37:16.400,0.000,-0.063,1.000,,,,,
1_S5,09/05/2023,10:37:16.500,-0.063,-0.063,0.938,-4833.0,-4999.5,2514.0,,
1_S5,09/05/2023,10:37:16.600,-0.063,-0.063,1.000,,,,,
1_S5,09/05/2023,10:37:16.700,0.000,0.000,1.000,,,,,
1_S5,09/05/2023,10:37:16.800,-0.063,-0.063,1.000,,,,,
1_S5,09/05/2023,10:37:16.900,0.000,-0.063,1.000,,,,,
1_S5,09/05/2023,10:37:17.000,-0.063,-0.063,1.000,-2409.0,-3573.0,2721.0,,
1_S5,09/05/2023,10:37:17.100,-0.063,-0.063,0.938,,,,,
1_S5,09/05/2023,10:37:17.200,-0.063,-0.063,1.000,,,,,
1_S5,09/05/2023,10:37:17.300,-0.063,-0.063,1.000,,,,,
1_S5,09/05/2023,10:37:17.400,-0.063,-0.063,1.000,,,,,
1_S5,09/05/2023,10:37:17.500,-0.063,-0.063,1.000,-1041.0,-3475.5,2622.0,,
1_S5,09/05/2023,10:37:17.600,0.000,-0.063,1.000,,,,,
1_S5,09/05/2023,10:37:17.700,-0.063,0.000,1.000,,,,,
1_S5,09/05/2023,10:37:17.800,-0.063,-0.125,1.000,,,,,
1_S5,09/05/2023,10:37:17.900,-0.063,-0.063,1.063,,,,,
1_S5,09/05/2023,10:37:18.000,-0.063,-0.125,1.000,165.0,-3715.5,2395.5,22,
1_S5,09/05/2023,10:37:18.100,-0.063,-0.056,1.000,,,,,
1_S5,09/05/2023,10:37:18.200,-0.063,-0.013,1.000,,,,,
1_S5,09/05/2023,10:37:18.300,-0.063,-0.063,1.000,,,,,
1_S5,09/05/2023,10:37:18.400,-0.063,-0.063,1.000,,,,,
1_S5,09/05/2023,10:37:18.500,-0.063,-0.063,1.000,121.5,-4099.5,2937.0,,
1_S5,09/05/2023,10:37:18.600,-0.063,-0.063,1.000,,,,,
1_S5,09/05/2023,10:37:18.700,-0.063,-0.063,1.000,,,,,
1_S5,09/05/2023,10:37:18.800,-0.063,-0.063,1.000,,,,,
1_S5,09/05/2023,10:37:18.900,0.000,-0.125,1.000,,,,,
1_S5,09/05/2023,10:37:19.000,-0.063,-0.063,1.000,-1312.5,-3805.5,3036.0,,
1_S5,09/05/2023,10:37:19.100,-0.063,-0.063,1.000,,,,,
1_S5,09/05/2023,10:37:19.200,-0.063,-0.063,1.000,,,,,
1_S5,09/05/2023,10:37:19.300,-0.063,-0.063,0.938,,,,,
1_S5,09/05/2023,10:37:19.400,0.000,-0.063,1.000,,,,,
1_S5,09/05/2023,10:37:19.500,-0.063,0.000,1.000,-1470.0,-3105.0,2427.0,,
1_S5,09/05/2023,10:37:19.600,-0.063,-0.125,1.000,,,,,
1_S5,09/05/2023,10:37:19.700,0.000,-0.125,1.000,,,,,
1_S5,09/05/2023,10:37:19.800,-0.063,-0.063,1.000,,,,,
1_S5,09/05/2023,10:37:19.900,0.000,0.000,1.000,,,,,
1_S5,09/05/2023,10:37:20.000,-0.063,-0.063,1.000,-1915.5,-3280.5,2589.0,,
1_S5,09/05/2023,10:37:20.100,-0.063,0.000,1.000,,,,,
1_S5,09/05/2023,10:37:20.200,-0.063,-0.125,1.000,,,,,
1_S5,09/05/2023,10:37:20.300,-0.063,-0.125,1.000,,,,,
1_S5,09/05/2023,10:37:20.400,-0.063,0.000,1.000,,,,,
1_S5,09/05/2023,10:37:20.500,-0.063,-0.125,0.938,-3579.0,-4117.5,2872.5,,
1_S5,09/05/2023,10:37:20.600,-0.063,-0.063,0.938,,,,,
1_S5,09/05/2023,10:37:20.700,-0.063,-0.063,1.000,,,,,
1_S5,09/05/2023,10:37:20.800,-0.063,-0.063,1.000,,,,,
1_S5,09/05/2023,10:37:20.900,-0.063,-0.063,1.000,,,,,
1_S5,09/05/2023,10:37:21.000,0.000,-0.125,1.000,-3631.5,-4266.0,2901.0,,
1_S5,09/05/2023,10:37:21.100,-0.063,0.000,1.000,,,,,
1_S5,09/05/2023,10:37:21.200,0.000,-0.063,1.000,,,,,
1_S5,09/05/2023,10:37:21.300,-0.063,-0.063,1.000,,,,,
1_S5,09/05/2023,10:37:21.400,-0.063,-0.063,1.000,,,,,
1_S5,09/05/2023,10:37:21.500,-0.063,-0.063,1.000,-2103.0,-3345.0,2578.5,,
1_S5,09/05/2023,10:37:21.600,-0.063,0.000,1.000,,,,,
1_S5,09/05/2023,10:37:21.700,-0.063,-0.125,1.000,,,,,
1_S5,09/05/2023,10:37:21.800,-0.063,-0.063,1.000,,,,,
1_S5,09/05/2023,10:37:21.900,-0.063,-0.063,1.000,,,,,
1_S5,09/05/2023,10:37:22.000,-0.063,-0.063,1.000,-1011.0,-3382.5,2505.0,,
1_S5,09/05/2023,10:37:22.100,-0.063,-0.063,1.000,,,,,
1_S5,09/05/2023,10:37:22.200,-0.063,-0.125,1.000,,,,,
1_S5,09/05/2023,10:37:22.300,-0.063,-0.063,1.000,,,,,
1_S5,09/05/2023,10:37:22.400,-0.063,0.000,1.000,,,,,
1_S5,09/05/2023,10:37:22.500,-0.063,-0.063,1.000,10.5,-3603.0,2371.5,,
1_S5,09/05/2023,10:37:22.600,0.000,-0.063,1.000,,,,,
1_S5,09/05/2023,10:37:22.700,-0.063,-0.063,1.000,,,,,
1_S5,09/05/2023,10:37:22.800,-0.063,-0.063,1.000,,,,,
1_S5,09/05/2023,10:37:22.900,-0.063,0.000,1.000,,,,,
1_S5,09/05/2023,10:37:23.000,-0.063,-0.063,1.000,-253.5,-4017.0,2917.5,22,
1_S5,09/05/2023,10:37:23.100,-0.063,-0.063,1.000,,,,,
1_S5,09/05/2023,10:37:23.200,-0.063,-0.075,1.000,,,,,
1_S5,09/05/2023,10:37:23.300,-0.063,-0.088,0.982,,,,,
1_S5,09/05/2023,10:37:23.400,-0.063,-0.025,0.963,,,,,
1_S5,09/05/2023,10:37:23.500,-0.063,-0.094,1.000,-1441.5,-3480.0,2782.5,,
1_S5,09/05/2023,10:37:23.600,-0.063,-0.088,1.000,,,,,
1_S5,09/05/2023,10:37:23.700,-0.063,-0.106,0.957,,,,,
1_S5,09/05/2023,10:37:23.800,-0.063,-0.075,0.938,,,,,
1_S5,09/05/2023,10:37:23.900,0.000,-0.063,1.000,,,,,
1_S5,09/05/2023,10:37:24.000,-0.063,-0.125,1.000,-1636.5,-3183.0,2500.5,,
1_S5,09/05/2023,10:37:24.100,-0.063,0.000,0.938,,,,,
1_S5,09/05/2023,10:37:24.200,-0.063,-0.063,1.000,,,,,
1_S5,09/05/2023,10:37:24.300,-0.063,0.000,0.938,,,,,
1_S5,09/05/2023,10:37:24.400,-0.063,-0.063,1.000,,,,,
1_S5,09/05/2023,10:37:24.500,-0.063,-0.063,1.000,-3336.0,-3996.0,2904.0,,
1_S5,09/05/2023,10:37:24.600,-0.063,-0.125,0.938,,,,,
1_S5,09/05/2023,10:37:24.700,-0.063,-0.063,1.000,,,,,
1_S5,09/05/2023,10:37:24.800,0.000,-0.063,1.000,,,,,
1_S5,09/05/2023,10:37:24.900,-0.063,-0.125,0.938,,,,,
1_S5,09/05/2023,10:37:25.000,-0.063,-0.063,1.000,-5122.5,-5056.5,2346.0,,
1_S5,09/05/2023,10:37:25.100,-0.063,-0.125,1.000,,,,,
1_S5,09/05/2023,10:37:25.200,-0.063,-0.063,1.000,,,,,
1_S5,09/05/2023,10:37:25.300,-0.063,-0.063,0.938,,,,,
1_S5,09/05/2023,10:37:25.400,-0.063,-0.063,1.000,,,,,
1_S5,09/05/2023,10:37:25.500,-0.063,-0.063,1.000,-2169.0,-3429.0,2622.0,,
1_S5,09/05/2023,10:37:25.600,-0.063,0.000,1.000,,,,,
1_S5,09/05/2023,10:37:25.700,-0.063,-0.063,1.000,,,,,
1_S5,09/05/2023,10:37:25.800,-0.063,0.000,1.000,,,,,
1_S5,09/05/2023,10:37:25.900,-0.063,-0.063,0.938,,,,,
1_S5,09/05/2023,10:37:26.000,-0.063,0.000,1.000,-1053.0,-3274.5,2458.5,,
1_S5,09/05/2023,10:37:26.100,-0.063,0.000,1.000,,,,,
1_S5,09/05/2023,10:37:26.200,-0.063,0.000,1.000,,,,,
1_S5,09/05/2023,10:37:26.300,-0.063,0.000,0.938,,,,,
1_S5,09/05/2023,10:37:26.400,0.000,0.000,1.000,,,,,
1_S5,09/05/2023,10:37:26.500,-0.063,0.000,1.000,-156.0,-3406.5,2317.5,,
1_S5,09/05/2023,10:37:26.600,-0.063,-0.063,1.000,,,,,
1_S5,09/05/2023,10:37:26.700,-0.063,0.063,1.000,,,,,
1_S5,09/05/2023,10:37:26.800,-0.063,-0.063,1.000,,,,,
1_S5,09/05/2023,10:37:26.900,-0.063,-0.125,1.000,,,,,
1_S5,09/05/2023,10:37:27.000,-0.063,-0.063,1.000,-475.5,-3937.5,2907.0,,
1_S5,09/05/2023,10:37:27.100,-0.063,-0.125,1.000,,,,,
1_S5,09/05/2023,10:37:27.200,-0.063,-0.063,1.000,,,,,
1_S5,09/05/2023,10:37:27.300,-0.063,-0.063,1.000,,,,,
1_S5,09/05/2023,10:37:27.400,0.000,0.000,1.000,,,,,
1_S5,09/05/2023,10:37:27.500,-0.063,-0.063,1.000,-1440.0,-3217.5,2605.5,,
1_S5,09/05/2023,10:37:27.600,-0.063,-0.063,1.000,,,,,
1_S5,09/05/2023,10:37:27.700,-0.063,0.000,1.000,,,,,
1_S5,09/05/2023,10:37:27.800,-0.063,-0.125,1.000,,,,,
1_S5,09/05/2023,10:37:27.900,-0.063,-0.063,1.000,,,,,
1_S5,09/05/2023,10:37:28.000,-0.063,-0.125,1.000,-1519.5,-3130.5,2469.0,22,
1_S5,09/05/2023,10:37:28.100,-0.006,-0.063,1.007,,,,,
1_S5,09/05/2023,10:37:28.200,-0.075,-0.063,1.050,,,,,
1_S5,09/05/2023,10:37:28.300,-0.106,-0.063,0.982,,,,,
1_S5,09/05/2023,10:37:28.400,-0.063,-0.063,0.963,,,,,
1_S5,09/05/2023,10:37:28.500,-0.063,-0.094,1.000,-4587.0,-4359.0,1717.5,,
1_S5,09/05/2023,10:37:28.600,-0.063,-0.088,0.963,,,,,
1_S5,09/05/2023,10:37:28.700,-0.063,-0.063,0.982,,,,,
1_S5,09/05/2023,10:37:28.800,-0.063,0.038,1.000,,,,,
1_S5,09/05/2023,10:37:28.900,-0.063,-0.063,1.000,,,,,
1_S5,09/05/2023,10:37:29.000,-0.063,-0.063,1.000,-3414.0,-3759.0,2248.5,,
1_S5,09/05/2023,10:37:29.100,-0.063,0.000,1.000,,,,,
1_S5,09/05/2023,10:37:29.200,-0.063,-0.063,1.000,,,,,
1_S5,09/05/2023,10:37:29.300,-0.063,-0.125,1.000,,,,,
1_S5,09/05/2023,10:37:29.400,-0.063,-0.125,1.000,,,,,
1_S5,09/05/2023,10:37:29.500,-0.063,0.000,1.000,-1417.5,-3367.5,2635.5,,
1_S5,09/05/2023,10:37:29.600,-0.063,-0.063,1.000,,,,,
1_S5,09/05/2023,10:37:29.700,-0.063,0.000,1.000,,,,,
1_S5,09/05/2023,10:37:29.800,-0.063,-0.125,1.000,,,,,
1_S5,09/05/2023,10:37:29.900,-0.063,-0.063,1.000,,,,,
1_S5,09/05/2023,10:37:30.000,-0.063,0.000,1.063,43.5,-3591.0,2352.0,,
1_S5,09/05/2023,10:37:30.100,-0.063,-0.063,1.000,,,,,
1_S5,09/05/2023,10:37:30.200,-0.063,-0.063,1.000,,,,,
1_S5,09/05/2023,10:37:30.300,-0.063,-0.125,1.000,,,,,
1_S5,09/05/2023,10:37:30.400,0.000,0.000,1.000,,,,,
1_S5,09/05/2023,10:37:30.500,-0.063,-0.063,1.063,84.0,-3924.0,2715.0,,
1_S5,09/05/2023,10:37:30.600,-0.063,0.000,0.938,,,,,
1_S5,09/05/2023,10:37:30.700,-0.063,0.063,1.000,,,,,
1_S5,09/05/2023,10:37:30.800,-0.063,-0.063,0.938,,,,,
1_S5,09/05/2023,10:37:30.900,0.000,-0.063,1.000,,,,,
1_S5,09/05/2023,10:37:31.000,-0.063,-0.063,1.000,-1546.5,-3115.5,2433.0,,
1_S5,09/05/2023,10:37:31.100,0.000,0.000,1.000,,,,,
1_S5,09/05/2023,10:37:31.200,-0.063,-0.063,1.063,,,,,
1_S5,09/05/2023,10:37:31.300,-0.063,0.000,1.063,,,,,
1_S5,09/05/2023,10:37:31.400,-0.063,-0.125,1.000,,,,,
1_S5,09/05/2023,10:37:31.500,-0.063,-0.063,1.000,-5373.0,-5394.0,2055.0,,
1_S5,09/05/2023,10:37:31.600,-0.063,-0.063,1.000,,,,,
1_S5,09/05/2023,10:37:31.700,-0.063,-0.063,1.000,,,,,
1_S5,09/05/2023,10:37:31.800,-0.063,0.000,0.938,,,,,
1_S5,09/05/2023,10:37:31.900,-0.063,0.125,1.063,,,,,
1_S5,09/05/2023,10:37:32.000,-0.188,0.125,0.938,-4570.5,-4663.5,1900.5,,
1_S5,09/05/2023,10:37:32.100,-0.063,-0.069,1.000,,,,,
1_S5,09/05/2023,10:37:32.200,-0.063,-0.113,1.000,,,,,
1_S5,09/05/2023,10:37:32.300,-0.063,-0.081,1.000,,,,,
1_S5,09/05/2023,10:37:32.400,-0.063,-0.125,0.975,,,,,
1_S5,09/05/2023,10:37:32.500,-0.063,-0.063,0.969,-511.5,-3778.5,2707.5,,
1_S5,09/05/2023,10:37:32.600,-0.025,0.000,1.000,,,,,
1_S5,09/05/2023,10:37:32.700,-0.044,-0.044,1.000,,,,,
1_S5,09/05/2023,10:37:32.800,-0.063,-0.013,1.000,,,,,
1_S5,09/05/2023,10:37:32.900,-0.063,-0.063,1.000,,,,,
1_S5,09/05/2023,10:37:33.000,-0.063,-0.063,1.000,-741.0,-3879.0,2953.5,22,
1_S5,09/05/2023,10:37:33.100,-0.125,0.000,1.000,,,,,
1_S5,09/05/2023,10:37:33.200,-0.063,-0.063,0.938,,,,,
1_S5,09/05/2023,10:37:33.300,-0.063,-0.063,1.000,,,,,
1_S5,09/05/2023,10:37:33.400,-0.063,0.000,1.000,,,,,
1_S5,09/05/2023,10:37:33.500,0.000,-0.063,1.000,-1456.5,-3115.5,2436.0,,
1_S5,09/05/2023,10:37:33.600,-0.063,-0.125,1.000,,,,,
1_S5,09/05/2023,10:37:33.700,-0.063,-0.063,0.938,,,,,
1_S5,09/05/2023,10:37:33.800,-0.063,-0.063,1.000,,,,,
1_S5,09/05/2023,10:37:33.900,-0.063,-0.063,1.000,,,,,
1_S5,09/05/2023,10:37:34.000,-0.063,-0.063,1.000,-3567.0,-4327.5,3199.5,,
1_S5,09/05/2023,10:37:34.100,0.000,-0.063,1.000,,,,,
1_S5,09/05/2023,10:37:34.200,-0.063,0.000,1.000,,,,,
1_S5,09/05/2023,10:37:34.300,0.000,-0.063,0.938,,,,,
1_S5,09/05/2023,10:37:34.400,-0.063,-0.125,1.000,,,,,
1_S5,09/05/2023,10:37:34.500,-0.063,-0.063,1.000,-2617.5,-3810.0,2988.0,,
1_S5,09/05/2023,10:37:34.600,-0.063,0.063,0.938,,,,,
1_S5,09/05/2023,10:37:34.700,-0.063,-0.063,1.000,,,,,
1_S5,09/05/2023,10:37:34.800,-0.063,0.000,1.000,,,,,
1_S5,09/05/2023,10:37:34.900,-0.063,0.000,1.000,,,,,
1_S5,09/05/2023,10:37:35.000,-0.063,-0.063,1.063,-154.5,-3546.0,2377.5,,
1_S5,09/05/2023,10:37:35.100,-0.063,-0.063,1.063,,,,,
1_S5,09/05/2023,10:37:35.200,-0.063,-0.125,1.000,,,,,
1_S5,09/05/2023,10:37:35.300,-0.063,-0.063,0.938,,,,,
1_S5,09/05/2023,10:37:35.400,-0.063,-0.063,1.000,,,,,
1_S5,09/05/2023,10:37:35.500,-0.063,-0.063,1.000,-499.5,-3720.0,2730.0,,
1_S5,09/05/2023,10:37:35.600,-0.063,-0.125,1.000,,,,,
1_S5,09/05/2023,10:37:35.700,-0.063,-0.063,1.000,,,,,
1_S5,09/05/2023,10:37:35.800,-0.063,-0.125,1.000,,,,,
1_S5,09/05/2023,10:37:35.900,-0.063,-0.063,1.000,,,,,
1_S5,09/05/2023,10:37:36.000,-0.063,-0.063,0.938,-1635.0,-3196.5,2526.0,,
1_S5,09/05/2023,10:37:36.100,-0.063,-0.063,1.000,,,,,
1_S5,09/05/2023,10:37:36.200,-0.063,0.063,0.938,,,,,
1_S5,09/05/2023,10:37:36.300,0.000,0.000,1.000,,,,,
1_S5,09/05/2023,10:37:36.400,0.000,0.000,1.000,,,,,
1_S5,09/05/2023,10:37:36.500,-0.063,-0.063,1.000,-3103.5,-4107.0,3142.5,,
1_S5,09/05/2023,10:37:36.600,-0.063,-0.063,1.000,,,,,
1_S5,09/05/2023,10:37:36.700,0.000,-0.125,1.000,,,,,
1_S5,09/05/2023,10:37:36.800,-0.063,0.000,1.000,,,,,
1_S5,09/05/2023,10:37:36.900,-0.063,0.000,1.000,,,,,
1_S5,09/05/2023,10:37:37.000,0.000,0.000,1.000,-996.0,-3591.0,2694.0,,
1_S5,09/05/2023,10:37:37.100,-0.063,-0.056,1.000,,,,,
1_S5,09/05/2023,10:37:37.200,-0.063,0.000,1.000,,,,,
1_S5,09/05/2023,10:37:37.300,-0.063,-0.019,1.000,,,,,
1_S5,09/05/2023,10:37:37.400,-0.038,-0.088,0.975,,,,,
1_S5,09/05/2023,10:37:37.500,-0.031,-0.094,0.969,-31.5,-3699.0,2458.5,,
1_S5,09/05/2023,10:37:37.600,-0.063,-0.063,1.000,,,,,
1_S5,09/05/2023,10:37:37.700,-0.063,-0.019,1.000,,,,,
1_S5,09/05/2023,10:37:37.800,-0.063,-0.100,1.000,,,,,
1_S5,09/05/2023,10:37:37.900,-0.063,0.000,1.000,,,,,
1_S5,09/05/2023,10:37:38.000,-0.063,-0.063,1.000,-96.0,-3582.0,2436.0,22,
1_S5,09/05/2023,10:37:38.100,-0.063,0.000,1.000,,,,,
1_S5,09/05/2023,10:37:38.200,-0.063,-0.063,1.000,,,,,
1_S5,09/05/2023,10:37:38.300,-0.063,-0.063,1.000,,,,,
1_S5,09/05/2023,10:37:38.400,-0.063,0.000,1.000,,,,,
1_S5,09/05/2023,10:37:38.500,-0.063,-0.063,1.000,-1453.5,-3070.5,2406.0,,
1_S5,09/05/2023,10:37:38.600,0.000,-0.125,1.000,,,,,
1_S5,09/05/2023,10:37:38.700,-0.063,-0.063,1.000,,,,,
1_S5,09/05/2023,10:37:38.800,-0.063,0.000,1.000,,,,,
1_S5,09/05/2023,10:37:38.900,-0.063,-0.063,1.000,,,,,
1_S5,09/05/2023,10:37:39.000,-0.063,-0.063,0.938,-2170.5,-3340.5,2601.0,,
1_S5,09/05/2023,10:37:39.100,-0.063,-0.063,1.000,,,,,
1_S5,09/05/2023,10:37:39.200,-0.063,0.000,1.000,,,,,
1_S5,09/05/2023,10:37:39.300,-0.063,0.000,1.000,,,,,
1_S5,09/05/2023,10:37:39.400,0.000,-0.063,0.938,,,,,
1_S5,09/05/2023,10:37:39.500,-0.063,-0.125,1.000,-3067.5,-3769.5,2773.5,,
1_S5,09/05/2023,10:37:39.600,-0.063,0.000,1.063,,,,,
1_S5,09/05/2023,10:37:39.700,-0.063,-0.125,1.000,,,,,
1_S5,09/05/2023,10:37:39.800,-0.063,-0.063,0.938,,,,,
1_S5,09/05/2023,10:37:39.900,-0.063,-0.063,1.000,,,,,
1_S5,09/05/2023,10:37:40.000,-0.063,-0.063,1.000,-1053.0,-3561.0,2646.0,,
1_S5,09/05/2023,10:37:40.100,-0.063,-0.063,1.000,,,,,
1_S5,09/05/2023,10:37:40.200,-0.063,-0.063,1.000,,,,,
1_S5,09/05/2023,10:37:40.300,-0.063,-0.063,0.938,,,,,
1_S5,09/05/2023,10:37:40.400,0.000,-0.063,1.063,,,,,
1_S5,09/05/2023,10:37:40.500,-0.063,0.000,1.000,27.0,-3604.5,2362.5,,
1_S5,09/05/2023,10:37:40.600,-0.063,-0.125,1.000,,,,,
1_S5,09/05/2023,10:37:40.700,-0.063,-0.063,0.938,,,,,
1_S5,09/05/2023,10:37:40.800,-0.063,-0.063,1.000,,,,,
1_S5,09/05/2023,10:37:40.900,-0.063,0.000,1.000,,,,,
1_S5,09/05/2023,10:37:41.000,-0.063,0.000,1.000,-466.5,-3834.0,2784.0,,
1_S5,09/05/2023,10:37:41.100,-0.063,-0.063,1.000,,,,,
1_S5,09/05/2023,10:37:41.200,-0.063,0.000,1.000,,,,,
1_S5,09/05/2023,10:37:41.300,-0.063,-0.063,1.000,,,,,
1_S5,09/05/2023,10:37:41.400,-0.063,-0.063,0.938,,,,,
1_S5,09/05/2023,10:37:41.500,-0.063,-0.125,1.000,-1492.5,-3160.5,2461.5,,
1_S5,09/05/2023,10:37:41.600,-0.063,-0.063,1.000,,,,,
1_S5,09/05/2023,10:37:41.700,-0.063,-0.063,1.000,,,,,
1_S5,09/05/2023,10:37:41.800,-0.063,-0.063,1.000,,,,,
1_S5,09/05/2023,10:37:41.900,-0.063,-0.125,1.000,,,,,
1_S5,09/05/2023,10:37:42.000,-0.063,-0.125,1.000,-1813.5,-3325.5,2662.5,,
1_S5,09/05/2023,10:37:42.100,-0.006,-0.063,1.000,,,,,
1_S5,09/05/2023,10:37:42.200,-0.063,-0.050,1.000,,,,,
1_S5,09/05/2023,10:37:42.300,-0.044,-0.019,1.000,,,,,
1_S5,09/05/2023,10:37:42.400,-0.025,-0.063,0.975,,,,,
1_S5,09/05/2023,10:37:42.500,-0.063,-0.063,1.000,-4060.5,-4614.0,3151.5,,
1_S5,09/05/2023,10:37:42.600,-0.063,-0.063,1.025,,,,,
1_S5,09/05/2023,10:37:42.700,-0.063,-0.063,0.957,,,,,
1_S5,09/05/2023,10:37:42.800,-0.063,-0.063,0.938,,,,,
1_S5,09/05/2023,10:37:42.900,-0.063,0.000,1.000,,,,,
1_S5,09/05/2023,10:37:43.000,-0.063,-0.063,0.938,-1725.0,-3202.5,2520.0,22,
1_S5,09/05/2023,10:37:43.100,-0.063,-0.063,1.000,,,,,
1_S5,09/05/2023,10:37:43.200,-0.063,-0.063,1.000,,,,,
1_S5,09/05/2023,10:37:43.300,-0.063,-0.063,1.000,,,,,
1_S5,09/05/2023,10:37:43.400,0.000,-0.063,1.000,,,,,
1_S5,09/05/2023,10:37:43.500,-0.063,-0.125,1.000,-121.5,-3489.0,2326.5,,
1_S5,09/05/2023,10:37:43.600,-0.063,0.000,1.000,,,,,
1_S5,09/05/2023,10:37:43.700,-0.063,-0.063,1.000,,,,,
1_S5,09/05/2023,10:37:43.800,-0.063,-0.063,1.000,,,,,
1_S5,09/05/2023,10:37:43.900,-0.063,-0.063,1.000,,,,,
1_S5,09/05/2023,10:37:44.000,-0.063,-0.063,0.938,-639.0,-3883.5,2857.5,,
1_S5,09/05/2023,10:37:44.100,-0.063,-0.063,1.000,,,,,
1_S5,09/05/2023,10:37:44.200,-0.063,-0.063,1.000,,,,,
1_S5,09/05/2023,10:37:44.300,-0.063,-0.063,0.938,,,,,
1_S5,09/05/2023,10:37:44.400,-0.063,0.000,0.938,,,,,
1_S5,09/05/2023,10:37:44.500,-0.063,-0.063,1.000,-1498.5,-3166.5,2497.5,,
1_S5,09/05/2023,10:37:44.600,-0.063,-0.063,1.000,,,,,
1_S5,09/05/2023,10:37:44.700,0.000,-0.063,0.938,,,,,
1_S5,09/05/2023,10:37:44.800,0.000,-0.063,0.938,,,,,
1_S5,09/05/2023,10:37:44.900,-0.063,-0.125,1.000,,,,,
1_S5,09/05/2023,10:37:45.000,0.000,-0.063,1.063,-3864.0,-4563.0,3255.0,,
1_S5,09/05/2023,10:37:45.100,-0.063,-0.125,1.000,,,,,
1_S5,09/05/2023,10:37:45.200,-0.063,0.000,1.000,,,,,
1_S5,09/05/2023,10:37:45.300,-0.063,-0.125,1.000,,,,,
1_S5,09/05/2023,10:37:45.400,-0.063,0.000,0.938,,,,,
1_S5,09/05/2023,10:37:45.500,-0.063,-0.063,1.000,-2854.5,-3949.5,3033.0,,
1_S5,09/05/2023,10:37:45.600,-0.063,-0.125,1.000,,,,,
1_S5,09/05/2023,10:37:45.700,-0.063,0.000,1.000,,,,,
1_S5,09/05/2023,10:37:45.800,-0.063,-0.063,1.000,,,,,
1_S5,09/05/2023,10:37:45.900,-0.063,-0.063,1.000,,,,,
1_S5,09/05/2023,10:37:46.000,-0.063,-0.063,1.000,-1206.0,-3225.0,2466.0,,
1_S5,09/05/2023,10:37:46.100,-0.063,-0.056,1.000,,,,,
1_S5,09/05/2023,10:37:46.200,-0.063,0.000,1.000,,,,,
1_S5,09/05/2023,10:37:46.300,-0.063,-0.019,1.000,,,,,
1_S5,09/05/2023,10:37:46.400,-0.063,-0.038,1.000,,,,,
1_S5,09/05/2023,10:37:46.500,-0.063,0.000,1.000,102.0,-3703.5,2403.0,,
1_S5,09/05/2023,10:37:46.600,-0.063,-0.038,0.963,,,,,
1_S5,09/05/2023,10:37:46.700,-0.063,-0.063,0.982,,,,,
1_S5,09/05/2023,10:37:46.800,-0.013,-0.213,1.400,,,,,
1_S5,09/05/2023,10:37:46.900,-0.063,-0.063,1.000,,,,,
1_S5,09/05/2023,10:37:47.000,0.000,-0.063,1.000,-1555.5,-3345.0,2635.5,,
1_S5,09/05/2023,10:37:47.100,-0.063,-0.125,1.000,,,,,
1_S5,09/05/2023,10:37:47.200,-0.063,-0.063,1.063,,,,,
1_S5,09/05/2023,10:37:47.300,0.000,-0.125,1.063,,,,,
1_S5,09/05/2023,10:37:47.400,-0.063,-0.063,1.000,,,,,
1_S5,09/05/2023,10:37:47.500,-0.063,-0.063,1.000,-2131.5,-3427.5,2745.0,,
1_S5,09/05/2023,10:37:47.600,-0.063,-0.063,1.000,,,,,
1_S5,09/05/2023,10:37:47.700,-0.063,-0.125,1.000,,,,,
1_S5,09/05/2023,10:37:47.800,-0.063,0.000,1.000,,,,,
1_S5,09/05/2023,10:37:47.900,-0.063,-0.125,1.000,,,,,
1_S5,09/05/2023,10:37:48.000,0.000,-0.125,1.000,-3883.5,-4390.5,3001.5,22,
1_S5,09/05/2023,10:37:48.100,-0.063,-0.063,1.000,,,,,
1_S5,09/05/2023,10:37:48.200,-0.063,-0.125,1.000,,,,,
1_S5,09/05/2023,10:37:48.300,-0.063,-0.063,1.000,,,,,
1_S5,09/05/2023,10:37:48.400,-0.063,-0.125,1.000,,,,,
1_S5,09/05/2023,10:37:48.500,-0.063,-0.063,0.938,-1605.0,-3168.0,2467.5,,
1_S5,09/05/2023,10:37:48.600,-0.063,-0.063,1.000,,,,,
1_S5,09/05/2023,10:37:48.700,-0.063,-0.188,1.000,,,,,
1_S5,09/05/2023,10:37:48.800,-0.063,-0.063,1.000,,,,,
1_S5,09/05/2023,10:37:48.900,-0.063,-0.063,1.000,,,,,
1_S5,09/05/2023,10:37:49.000,-0.063,-0.063,1.000,-111.0,-3601.5,2416.5,,
1_S5,09/05/2023,10:37:49.100,-0.063,-0.063,1.000,,,,,
1_S5,09/05/2023,10:37:49.200,-0.063,-0.063,1.000,,,,,
1_S5,09/05/2023,10:37:49.300,-0.063,-0.063,1.000,,,,,
1_S5,09/05/2023,10:37:49.400,-0.063,-0.125,1.000,,,,,
1_S5,09/05/2023,10:37:49.500,-0.063,-0.063,1.000,558.0,-4171.5,2635.5,,
1_S5,09/05/2023,10:37:49.600,-0.063,-0.063,1.000,,,,,
1_S5,09/05/2023,10:37:49.700,-0.063,-0.063,1.000,,,,,
1_S5,09/05/2023,10:37:49.800,-0.063,-0.063,0.938,,,,,
1_S5,09/05/2023,10:37:49.900,-0.063,-0.188,1.000,,,,,
1_S5,09/05/2023,10:37:50.000,-0.063,0.000,1.000,-1663.5,-3577.5,2841.0,,
1_S5,09/05/2023,10:37:50.100,-0.063,0.000,0.938,,,,,
1_S5,09/05/2023,10:37:50.200,-0.063,-0.125,1.000,,,,,
1_S5,09/05/2023,10:37:50.300,-0.063,-0.063,1.063,,,,,
1_S5,09/05/2023,10:37:50.400,-0.063,0.000,1.000,,,,,
1_S5,09/05/2023,10:37:50.500,-0.063,-0.063,1.000,-1857.0,-3238.5,2545.5,,
1_S5,09/05/2023,10:37:50.600,-0.063,-0.063,1.000,,,,,
1_S5,09/05/2023,10:37:50.700,0.000,0.000,1.000,,,,,
1_S5,09/05/2023,10:37:50.800,-0.063,-0.125,1.000,,,,,
1_S5,09/05/2023,10:37:50.900,-0.063,-0.125,1.000,,,,,
1_S5,09/05/2023,10:37:51.000,-0.063,0.000,1.000,-3651.0,-4270.5,3022.5,,
1_S5,09/05/2023,10:37:51.100,-0.056,-0.069,1.057,,,,,
1_S5,09/05/2023,10:37:51.200,-0.013,-0.125,0.988,,,,,
1_S5,09/05/2023,10:37:51.300,-0.044,-0.106,0.957,,,,,
1_S5,09/05/2023,10:37:51.400,-0.025,-0.038,1.000,,,,,
1_S5,09/05/2023,10:37:51.500,-0.063,-0.063,1.000,-2016.0,-3405.0,2625.0,,
1_S5,09/05/2023,10:37:51.600,-0.063,-0.088,1.000,,,,,
1_S5,09/05/2023,10:37:51.700,-0.063,-0.019,1.000,,,,,
1_S5,09/05/2023,10:37:51.800,-0.013,0.000,1.000,,,,,
1_S5,09/05/2023,10:37:51.900,-0.063,0.000,0.938,,,,,
1_S5,09/05/2023,10:37:52.000,-0.063,-0.063,1.000,-573.0,-3844.5,2833.5,,
1_S5,09/05/2023,10:37:52.100,0.000,-0.063,1.000,,,,,
1_S5,09/05/2023,10:37:52.200,-0.063,-0.125,1.000,,,,,
1_S5,09/05/2023,10:37:52.300,-0.063,0.000,1.000,,,,,
1_S5,09/05/2023,10:37:52.400,-0.063,-0.063,1.000,,,,,
1_S5,09/05/2023,10:37:52.500,-0.063,-0.063,1.000,-228.0,-3582.0,2452.5,,
1_S5,09/05/2023,10:37:52.600,-0.063,0.000,1.063,,,,,
1_S5,09/05/2023,10:37:52.700,-0.063,-0.063,1.000,,,,,
1_S5,09/05/2023,10:37:52.800,-0.063,-0.063,1.000,,,,,
1_S5,09/05/2023,10:37:52.900,-0.063,-0.063,1.000,,,,,
1_S5,09/05/2023,10:37:53.000,-0.063,-0.063,1.000,-1386.0,-3195.0,2584.5,22,
1_S5,09/05/2023,10:37:53.100,-0.063,-0.063,1.000,,,,,
1_S5,09/05/2023,10:37:53.200,-0.063,-0.063,1.000,,,,,
1_S5,09/05/2023,10:37:53.300,-0.063,-0.063,1.000,,,,,
1_S5,09/05/2023,10:37:53.400,-0.063,0.000,1.000,,,,,
1_S5,09/05/2023,10:37:53.500,-0.063,-0.063,0.938,-1774.5,-3337.5,2667.0,,
1_S5,09/05/2023,10:37:53.600,-0.125,0.000,1.000,,,,,
1_S5,09/05/2023,10:37:53.700,-0.063,0.000,1.000,,,,,
1_S5,09/05/2023,10:37:53.800,-0.063,-0.063,1.000,,,,,
1_S5,09/05/2023,10:37:53.900,-0.063,0.000,1.000,,,,,
1_S5,09/05/2023,10:37:54.000,0.000,-0.125,1.000,-4179.0,-4710.0,3226.5,,
1_S5,09/05/2023,10:37:54.100,-0.063,-0.063,1.000,,,,,
1_S5,09/05/2023,10:37:54.200,-0.063,-0.063,1.000,,,,,
1_S5,09/05/2023,10:37:54.300,0.000,-0.125,1.000,,,,,
1_S5,09/05/2023,10:37:54.400,-0.063,0.000,1.000,,,,,
1_S5,09/05/2023,10:37:54.500,-0.063,-0.125,1.000,-1975.5,-3384.0,2682.0,,
1_S5,09/05/2023,10:37:54.600,-0.063,-0.125,0.938,,,,,
1_S5,09/05/2023,10:37:54.700,-0.063,0.000,1.000,,,,,
1_S5,09/05/2023,10:37:54.800,-0.063,-0.063,0.938,,,,,
1_S5,09/05/2023,10:37:54.900,-0.063,0.000,1.000,,,,,
1_S5,09/05/2023,10:37:55.000,-0.063,-0.063,1.000,-297.0,-3490.5,2373.0,,
1_S5,09/05/2023,10:37:55.100,-0.063,-0.063,1.000,,,,,
1_S5,09/05/2023,10:37:55.200,-0.063,-0.063,1.000,,,,,
1_S5,09/05/2023,10:37:55.300,0.000,-0.063,1.000,,,,,
1_S5,09/05/2023,10:37:55.400,-0.063,-0.063,1.000,,,,,
1_S5,09/05/2023,10:37:55.500,-0.063,-0.063,1.000,-277.5,-3820.5,2700.0,,
1_S5,09/05/2023,10:37:55.600,-0.063,0.000,1.000,,,,,
1_S5,09/05/2023,10:37:55.700,-0.063,-0.063,1.000,,,,,
1_S5,09/05/2023,10:37:55.800,-0.063,-0.063,1.000,,,,,
1_S5,09/05/2023,10:37:55.900,0.000,-0.063,0.938,,,,,
1_S5,09/05/2023,10:37:56.000,-0.063,-0.125,1.000,-1396.5,-3108.0,2452.5,,
1_S5,09/05/2023,10:37:56.100,-0.063,-0.125,1.007,,,,,
1_S5,09/05/2023,10:37:56.200,-0.063,-0.113,1.050,,,,,
1_S5,09/05/2023,10:37:56.300,-0.063,-0.063,1.000,,,,,
1_S5,09/05/2023,10:37:56.400,-0.063,-0.038,1.000,,,,,
1_S5,09/05/2023,10:37:56.500,-0.063,-0.031,1.000,-2325.0,-3451.5,2725.5,,
1_S5,09/05/2023,10:37:56.600,-0.363,0.350,0.738,,,,,
1_S5,09/05/2023,10:37:56.700,-0.213,0.100,0.869,,,,,
1_S5,09/05/2023,10:37:56.800,-0.013,-0.075,1.000,,,,,
1_S5,09/05/2023,10:37:56.900,-0.063,-0.125,0.938,,,,,
1_S5,09/05/2023,10:37:57.000,-0.063,-0.063,0.938,-4984.5,-4954.5,1492.5,,
1_S5,09/05/2023,10:37:57.100,-0.063,-0.063,1.000,,,,,
1_S5,09/05/2023,10:37:57.200,-0.063,-0.063,1.000,,,,,
1_S5,09/05/2023,10:37:57.300,-0.063,-0.063,1.000,,,,,
1_S5,09/05/2023,10:37:57.400,-0.063,-0.063,1.000,,,,,
1_S5,09/05/2023,10:37:57.500,-0.063,-0.063,1.000,-1432.5,-3192.0,2476.5,,
1_S5,09/05/2023,10:37:57.600,0.000,0.000,1.000,,,,,
1_S5,09/05/2023,10:37:57.700,-0.063,-0.063,1.000,,,,,
1_S5,09/05/2023,10:37:57.800,0.000,-0.063,1.000,,,,,
1_S5,09/05/2023,10:37:57.900,-0.063,-0.063,1.000,,,,,
1_S5,09/05/2023,10:37:58.000,-0.063,-0.063,1.000,40.5,-3576.0,2367.0,22,
1_S5,09/05/2023,10:37:58.100,-0.063,0.000,1.000,,,,,
1_S5,09/05/2023,10:37:58.200,-0.063,0.000,0.938,,,,,
1_S5,09/05/2023,10:37:58.300,-0.063,-0.063,0.938,,,,,
1_S5,09/05/2023,10:37:58.400,0.000,-0.063,1.000,,,,,
1_S5,09/05/2023,10:37:58.500,-0.063,-0.063,1.000,-949.5,-3982.5,3105.0,,
1_S5,09/05/2023,10:37:58.600,-0.063,-0.125,1.000,,,,,
1_S5,09/05/2023,10:37:58.700,0.000,-0.063,1.000,,,,,
1_S5,09/05/2023,10:37:58.800,-0.063,-0.063,1.000,,,,,
1_S5,09/05/2023,10:37:58.900,0.000,-0.125,1.000,,,,,
1_S5,09/05/2023,10:37:59.000,-0.063,-0.063,1.000,-1548.0,-3109.5,2451.0,,
1_S5,09/05/2023,10:37:59.100,0.000,0.000,1.000,,,,,
1_S5,09/05/2023,10:37:59.200,-0.063,-0.063,1.000,,,,,
1_S5,09/05/2023,10:37:59.300,-0.063,-0.063,1.000,,,,,
1_S5,09/05/2023,10:37:59.400,-0.125,-0.063,0.938,,,,,
1_S5,09/05/2023,10:37:59.500,0.000,-0.125,1.000,-2032.5,-3381.0,2703.0,,
1_S5,09/05/2023,10:37:59.600,-0.063,-0.063,1.000,,,,,
1_S5,09/05/2023,10:37:59.700,-0.063,-0.063,1.000,,,,,
1_S5,09/05/2023,10:37:59.800,-0.063,-0.063,0.938,,,,,
1_S5,09/05/2023,10:37:59.900,-0.063,-0.125,1.000,,,,,
1_S5,09/05/2023,10:38:00.000,-0.063,-0.063,1.000,-3067.5,-4053.0,3063.0,,
1_S5,09/05/2023,10:38:00.100,-0.063,-0.063,1.000,,,,,
1_S5,09/05/2023,10:38:00.200,-0.063,-0.050,1.000,,,,,
1_S5,09/05/2023,10:38:00.300,-0.063,0.000,1.000,,,,,
1_S5,09/05/2023,10:38:00.400,-0.063,-0.050,0.975,,,,,
1_S5,09/05/2023,10:38:00.500,-0.063,-0.125,0.938,-1197.0,-3295.5,2499.0,,
1_S5,09/05/2023,10:38:00.600,-0.063,-0.088,0.975,,,,,
1_S5,09/05/2023,10:38:00.700,-0.063,-0.106,1.000,,,,,
1_S5,09/05/2023,10:38:00.800,-0.113,-0.025,1.000,,,,,
1_S5,09/05/2023,10:38:00.900,0.000,-0.125,1.000,,,,,
1_S5,09/05/2023,10:38:01.000,0.000,-0.063,1.000,34.5,-3604.5,2349.0,,
1_S5,09/05/2023,10:38:01.100,0.000,0.000,1.000,,,,,
1_S5,09/05/2023,10:38:01.200,-0.063,-0.063,1.000,,,,,
1_S5,09/05/2023,10:38:01.300,-0.063,-0.063,1.000,,,,,
1_S5,09/05/2023,10:38:01.400,-0.063,-0.063,1.000,,,,,
1_S5,09/05/2023,10:38:01.500,-0.063,-0.063,1.000,-975.0,-3942.0,3084.0,,
1_S5,09/05/2023,10:38:01.600,0.000,-0.125,1.000,,,,,
1_S5,09/05/2023,10:38:01.700,-0.125,0.063,0.875,,,,,
1_S5,09/05/2023,10:38:01.800,-0.063,-0.063,1.000,,,,,
1_S5,09/05/2023,10:38:01.900,0.000,0.000,1.000,,,,,
1_S5,09/05/2023,10:38:02.000,-0.063,-0.063,1.063,-2650.5,-3759.0,2961.0,,
1_S5,09/05/2023,10:38:02.100,0.000,-0.125,1.000,,,,,
1_S5,09/05/2023,10:38:02.200,-0.063,-0.063,1.000,,,,,
1_S5,09/05/2023,10:38:02.300,0.000,-0.063,0.938,,,,,
1_S5,09/05/2023,10:38:02.400,-0.063,0.000,1.000,,,,,
1_S5,09/05/2023,10:38:02.500,-0.063,0.000,1.000,-3520.5,-4338.0,3159.0,,
1_S5,09/05/2023,10:38:02.600,-0.063,-0.125,1.000,,,,,
1_S5,09/05/2023,10:38:02.700,-0.125,0.000,0.938,,,,,
1_S5,09/05/2023,10:38:02.800,-0.063,-0.063,1.000,,,,,
1_S5,09/05/2023,10:38:02.900,0.000,-0.125,0.938,,,,,
1_S5,09/05/2023,10:38:03.000,0.000,-0.063,1.000,-367.5,-3699.0,2638.5,22,
1_S5,09/05/2023,10:38:03.100,-0.063,-0.063,1.000,,,,,
1_S5,09/05/2023,10:38:03.200,-0.063,-0.125,1.000,,,,,
1_S5,09/05/2023,10:38:03.300,-0.063,0.000,1.000,,,,,
1_S5,09/05/2023,10:38:03.400,0.000,-0.063,1.000,,,,,
1_S5,09/05/2023,10:38:03.500,-0.063,0.000,1.000,-262.5,-4023.0,2874.0,,
1_S5,09/05/2023,10:38:03.600,-0.063,-0.063,0.938,,,,,
1_S5,09/05/2023,10:38:03.700,-0.063,-0.063,1.000,,,,,
1_S5,09/05/2023,10:38:03.800,-0.063,-0.125,1.000,,,,,
1_S5,09/05/2023,10:38:03.900,-0.063,-0.063,1.000,,,,,
1_S5,09/05/2023,10:38:04.000,-0.063,0.000,1.000,-1369.5,-3558.0,2916.0,,
1_S5,09/05/2023,10:38:04.100,-0.063,-0.125,1.000,,,,,
1_S5,09/05/2023,10:38:04.200,-0.063,-0.063,1.000,,,,,
1_S5,09/05/2023,10:38:04.300,-0.063,-0.063,1.000,,,,,
1_S5,09/05/2023,10:38:04.400,-0.063,0.000,0.938,,,,,
1_S5,09/05/2023,10:38:04.500,-0.125,-0.125,1.000,-1722.0,-3169.5,2512.5,,
1_S5,09/05/2023,10:38:04.600,-0.063,0.000,1.000,,,,,
1_S5,09/05/2023,10:38:04.700,-0.063,-0.063,1.000,,,,,
1_S5,09/05/2023,10:38:04.800,-0.063,-0.063,1.000,,,,,
1_S5,09/05/2023,10:38:04.900,-0.063,-0.125,1.063,,,,,
1_S5,09/05/2023,10:38:05.000,-0.063,-0.125,0.938,-3093.0,-3952.5,2946.0,,
1_S5,09/05/2023,10:38:05.100,-0.056,-0.113,1.000,,,,,
1_S5,09/05/2023,10:38:05.200,-0.013,-0.013,1.000,,,,,
1_S5,09/05/2023,10:38:05.300,-0.025,0.013,0.963,,,,,
1_S5,09/05/2023,10:38:05.400,0.013,0.088,0.925,,,,,
1_S5,09/05/2023,10:38:05.500,-0.063,-0.063,1.000,-186.0,-3654.0,2491.5,,
1_S5,09/05/2023,10:38:05.600,-0.025,-0.025,1.000,,,,,
1_S5,09/05/2023,10:38:05.700,-0.044,-0.044,1.000,,,,,
1_S5,09/05/2023,10:38:05.800,-0.063,-0.013,1.000,,,,,
1_S5,09/05/2023,10:38:05.900,0.000,-0.125,1.000,,,,,
1_S5,09/05/2023,10:38:06.000,-0.063,0.000,1.000,558.0,-4104.0,2442.0,,
1_S5,09/05/2023,10:38:06.100,-0.063,-0.063,1.000,,,,,
1_S5,09/05/2023,10:38:06.200,-0.063,-0.063,1.063,,,,,
1_S5,09/05/2023,10:38:06.300,-0.063,-0.063,1.000,,,,,
1_S5,09/05/2023,10:38:06.400,-0.063,-0.063,1.000,,,,,
1_S5,09/05/2023,10:38:06.500,-0.063,-0.063,1.000,-1552.5,-3339.0,2620.5,,
1_S5,09/05/2023,10:38:06.600,-0.125,-0.125,1.000,,,,,
1_S5,09/05/2023,10:38:06.700,-0.063,-0.063,1.000,,,,,
1_S5,09/05/2023,10:38:06.800,0.000,-0.063,1.000,,,,,
1_S5,09/05/2023,10:38:06.900,-0.063,-0.063,1.000,,,,,
1_S5,09/05/2023,10:38:07.000,-0.125,-0.125,0.875,-2137.5,-3358.5,2656.5,,
1_S5,09/05/2023,10:38:07.100,0.000,-0.063,1.000,,,,,
1_S5,09/05/2023,10:38:07.200,-0.063,-0.063,1.000,,,,,
1_S5,09/05/2023,10:38:07.300,-0.063,-0.063,1.000,,,,,
1_S5,09/05/2023,10:38:07.400,-0.063,-0.125,1.000,,,,,
1_S5,09/05/2023,10:38:07.500,-0.063,-0.125,1.000,-4977.0,-5082.0,1456.5,,
1_S5,09/05/2023,10:38:07.600,-0.063,-0.125,1.000,,,,,
1_S5,09/05/2023,10:38:07.700,-0.063,0.000,1.000,,,,,
1_S5,09/05/2023,10:38:07.800,0.000,-0.063,1.000,,,,,
1_S5,09/05/2023,10:38:07.900,-0.063,-0.063,1.000,,,,,
1_S5,09/05/2023,10:38:08.000,-0.063,0.000,1.000,-3694.5,-4071.0,2248.5,22,
1_S5,09/05/2023,10:38:08.100,0.000,-0.125,1.000,,,,,
1_S5,09/05/2023,10:38:08.200,-0.063,-0.063,1.000,,,,,
1_S5,09/05/2023,10:38:08.300,-0.063,-0.125,1.000,,,,,
1_S5,09/05/2023,10:38:08.400,-0.063,-0.063,0.938,,,,,
1_S5,09/05/2023,10:38:08.500,0.000,-0.063,1.000,-318.0,-3468.0,2367.0,,
1_S5,09/05/2023,10:38:08.600,-0.063,0.000,1.000,,,,,
1_S5,09/05/2023,10:38:08.700,-0.063,-0.063,1.000,,,,,
1_S5,09/05/2023,10:38:08.800,-0.063,-0.063,1.000,,,,,
1_S5,09/05/2023,10:38:08.900,-0.063,0.000,0.938,,,,,
1_S5,09/05/2023,10:38:09.000,-0.063,-0.063,1.000,-151.5,-3867.0,2694.0,,
1_S5,09/05/2023,10:38:09.100,-0.063,-0.063,1.000,,,,,
1_S5,09/05/2023,10:38:09.200,-0.063,-0.063,1.000,,,,,
1_S5,09/05/2023,10:38:09.300,-0.063,-0.063,1.000,,,,,
1_S5,09/05/2023,10:38:09.400,-0.063,-0.063,1.000,,,,,
1_S5,09/05/2023,10:38:09.500,-0.063,-0.063,1.000,-1386.0,-3079.5,2410.5,,
1_S5,09/05/2023,10:38:09.600,0.000,-0.063,1.000,,,,,
1_S5,09/05/2023,10:38:09.700,-0.063,-0.063,0.938,,,,,
1_S5,09/05/2023,10:38:09.800,-0.063,-0.063,0.938,,,,,
1_S5,09/05/2023,10:38:09.900,-0.063,-0.125,1.000,,,,,
1_S5,09/05/2023,10:38:10.000,-0.063,-0.125,1.000,-5248.5,-5284.5,2131.5,,
1_S5,09/05/2023,10:38:10.100,-0.006,-0.063,0.938,,,,,
1_S5,09/05/2023,10:38:10.200,-0.063,-0.063,0.950,,,,,
1_S5,09/05/2023,10:38:10.300,-0.063,-0.044,0.982,,,,,
1_S5,09/05/2023,10:38:10.400,-0.063,-0.025,0.963,,,,,
1_S5,09/05/2023,10:38:10.500,-0.063,-0.063,1.000,-2853.0,-3714.0,2644.5,,
1_S5,09/05/2023,10:38:10.600,-0.063,-0.063,1.000,,,,,
1_S5,09/05/2023,10:38:10.700,-0.063,-0.063,0.957,,,,,
1_S5,09/05/2023,10:38:10.800,-0.063,-0.013,1.038,,,,,
1_S5,09/05/2023,10:38:10.900,-0.063,-0.063,0.938,,,,,
1_S5,09/05/2023,10:38:11.000,0.000,-0.063,1.000,40.5,-3687.0,2392.5,,
1_S5,09/05/2023,10:38:11.100,-0.063,-0.063,1.000,,,,,
1_S5,09/05/2023,10:38:11.200,-0.063,-0.125,1.000,,,,,
1_S5,09/05/2023,10:38:11.300,-0.063,-0.063,1.000,,,,,
1_S5,09/05/2023,10:38:11.400,-0.063,-0.125,1.000,,,,,
1_S5,09/05/2023,10:38:11.500,-0.063,-0.125,0.938,-661.5,-4008.0,3025.5,,
1_S5,09/05/2023,10:38:11.600,-0.063,-0.063,1.063,,,,,
1_S5,09/05/2023,10:38:11.700,-0.063,-0.063,1.000,,,,,
1_S5,09/05/2023,10:38:11.800,-0.063,-0.063,0.938,,,,,
1_S5,09/05/2023,10:38:11.900,-0.063,-0.063,1.000,,,,,
1_S5,09/05/2023,10:38:12.000,-0.063,-0.125,1.000,-1833.0,-3268.5,2610.0,,
1_S5,09/05/2023,10:38:12.100,-0.125,0.000,1.000,,,,,
1_S5,09/05/2023,10:38:12.200,-0.063,-0.063,1.000,,,,,
1_S5,09/05/2023,10:38:12.300,-0.063,-0.063,1.063,,,,,
1_S5,09/05/2023,10:38:12.400,-0.063,-0.063,1.063,,,,,
1_S5,09/05/2023,10:38:12.500,0.000,-0.125,1.000,-3997.5,-4531.5,3096.0,,
1_S5,09/05/2023,10:38:12.600,-0.063,-0.125,0.938,,,,,
1_S5,09/05/2023,10:38:12.700,-0.063,-0.063,1.000,,,,,
1_S5,09/05/2023,10:38:12.800,-0.063,0.000,1.000,,,,,
1_S5,09/05/2023,10:38:12.900,-0.063,0.000,1.000,,,,,
1_S5,09/05/2023,10:38:13.000,0.000,0.000,0.938,-318.0,-3472.5,2359.5,22,
1_S5,09/05/2023,10:38:13.100,-0.063,-0.063,1.000,,,,,
1_S5,09/05/2023,10:38:13.200,-0.063,0.000,1.000,,,,,
1_S5,09/05/2023,10:38:13.300,0.000,-0.063,1.000,,,,,
1_S5,09/05/2023,10:38:13.400,0.000,0.000,1.000,,,,,
1_S5,09/05/2023,10:38:13.500,-0.063,-0.063,1.000,79.5,-3820.5,2539.5,,
1_S5,09/05/2023,10:38:13.600,-0.063,-0.063,1.000,,,,,
1_S5,09/05/2023,10:38:13.700,-0.063,-0.063,1.000,,,,,
1_S5,09/05/2023,10:38:13.800,-0.063,-0.125,0.938,,,,,
1_S5,09/05/2023,10:38:13.900,-0.063,-0.125,1.000,,,,,
1_S5,09/05/2023,10:38:14.000,-0.063,-0.125,0.938,-1330.5,-3750.0,3021.0,,
1_S5,09/05/2023,10:38:14.100,0.000,-0.063,1.000,,,,,
1_S5,09/05/2023,10:38:14.200,-0.063,-0.063,1.000,,,,,
1_S5,09/05/2023,10:38:14.300,0.000,-0.063,1.000,,,,,
1_S5,09/05/2023,10:38:14.400,0.000,-0.063,0.938,,,,,
1_S5,09/05/2023,10:38:14.500,-0.063,-0.125,1.000,-1605.0,-3259.5,2580.0,,
1_S5,09/05/2023,10:38:14.600,0.000,0.000,1.000,,,,,
1_S5,09/05/2023,10:38:14.700,-0.063,-0.125,1.000,,,,,
1_S5,09/05/2023,10:38:14.800,-0.063,-0.125,1.000,,,,,
1_S5,09/05/2023,10:38:14.900,-0.063,-0.063,1.000,,,,,
1_S5,09/05/2023,10:38:15.000,-0.063,-0.063,1.000,-3825.0,-4534.5,3288.0,,
1_S5,09/05/2023,10:38:15.100,-0.006,-0.125,0.944,,,,,
1_S5,09/05/2023,10:38:15.200,-0.063,-0.113,1.013,,,,,
1_S5,09/05/2023,10:38:15.300,-0.063,-0.063,1.044,,,,,
1_S5,09/05/2023,10:38:15.400,-0.063,-0.063,1.000,,,,,
1_S5,09/05/2023,10:38:15.500,-0.031,-0.031,1.000,-1633.5,-3183.0,2497.5,,
1_S5,09/05/2023,10:38:15.600,0.000,-0.038,1.000,,,,,
1_S5,09/05/2023,10:38:15.700,-0.044,-0.063,1.000,,,,,
1_S5,09/05/2023,10:38:15.800,-0.063,-0.013,0.950,,,,,
1_S5,09/05/2023,10:38:15.900,-0.063,-0.063,1.063,,,,,
1_S5,09/05/2023,10:38:16.000,0.000,-0.125,1.000,-256.5,-3318.0,2296.5,,
1_S5,09/05/2023,10:38:16.100,0.000,-0.063,0.938,,,,,
1_S5,09/05/2023,10:38:16.200,-0.063,-0.125,1.000,,,,,
1_S5,09/05/2023,10:38:16.300,-0.063,-0.063,1.000,,,,,
1_S5,09/05/2023,10:38:16.400,-0.063,-0.063,1.000,,,,,
1_S5,09/05/2023,10:38:16.500,-0.063,-0.125,1.000,-367.5,-3873.0,2754.0,,
1_S5,09/05/2023,10:38:16.600,-0.063,0.000,1.000,,,,,
1_S5,09/05/2023,10:38:16.700,-0.063,-0.063,1.000,,,,,
1_S5,09/05/2023,10:38:16.800,0.000,-0.063,1.000,,,,,
1_S5,09/05/2023,10:38:16.900,-0.063,-0.063,1.000,,,,,
1_S5,09/05/2023,10:38:17.000,-0.125,-0.063,0.938,-1413.0,-3168.0,2509.5,,
1_S5,09/05/2023,10:38:17.100,0.000,-0.063,1.063,,,,,
1_S5,09/05/2023,10:38:17.200,0.000,-0.063,1.000,,,,,
1_S5,09/05/2023,10:38:17.300,-0.063,0.000,1.000,,,,,
1_S5,09/05/2023,10:38:17.400,-0.063,-0.125,1.000,,,,,
1_S5,09/05/2023,10:38:17.500,0.000,-0.063,1.000,-3273.0,-4038.0,3001.5,,
1_S5,09/05/2023,10:38:17.600,-0.063,0.000,1.000,,,,,
1_S5,09/05/2023,10:38:17.700,0.000,-0.063,1.063,,,,,
1_S5,09/05/2023,10:38:17.800,-0.125,0.063,0.938,,,,,
1_S5,09/05/2023,10:38:17.900,-0.063,-0.063,1.000,,,,,
1_S5,09/05/2023,10:38:18.000,-0.063,0.000,1.000,-2059.5,-3369.0,2671.5,22,
1_S5,09/05/2023,10:38:18.100,-0.125,-0.063,1.000,,,,,
1_S5,09/05/2023,10:38:18.200,0.000,-0.125,1.000,,,,,
1_S5,09/05/2023,10:38:18.300,0.000,0.000,1.000,,,,,
1_S5,09/05/2023,10:38:18.400,0.000,-0.063,1.000,,,,,
1_S5,09/05/2023,10:38:18.500,-0.063,-0.063,1.000,-292.5,-3312.0,2280.0,,
1_S5,09/05/2023,10:38:18.600,-0.063,-0.125,1.000,,,,,
1_S5,09/05/2023,10:38:18.700,-0.063,-0.063,1.000,,,,,
1_S5,09/05/2023,10:38:18.800,-0.063,-0.063,0.938,,,,,
1_S5,09/05/2023,10:38:18.900,-0.063,-0.125,1.000,,,,,
1_S5,09/05/2023,10:38:19.000,-0.063,-0.063,1.000,-448.5,-3936.0,2868.0,,
1_S5,09/05/2023,10:38:19.100,-0.063,-0.063,1.000,,,,,
1_S5,09/05/2023,10:38:19.200,-0.063,-0.050,1.000,,,,,
1_S5,09/05/2023,10:38:19.300,-0.063,-0.019,1.000,,,,,
1_S5,09/05/2023,10:38:19.400,-0.063,-0.038,1.000,,,,,
1_S5,09/05/2023,10:38:19.500,-0.063,-0.063,1.000,-1317.0,-3573.0,2956.5,,
1_S5,09/05/2023,10:38:19.600,-0.063,-0.125,1.000,,,,,
1_S5,09/05/2023,10:38:19.700,-0.063,-0.038,1.000,,,,,
1_S5,09/05/2023,10:38:19.800,-0.063,-0.050,1.000,,,,,
1_S5,09/05/2023,10:38:19.900,-0.063,0.000,1.000,,,,,
1_S5,09/05/2023,10:38:20.000,-0.063,-0.125,1.000,-1642.5,-3223.5,2559.0,,
1_S5,09/05/2023,10:38:20.100,-0.063,-0.063,1.000,,,,,
1_S5,09/05/2023,10:38:20.200,-0.063,0.000,0.938,,,,,
1_S5,09/05/2023,10:38:20.300,-0.063,-0.125,1.000,,,,,
1_S5,09/05/2023,10:38:20.400,-0.063,-0.063,1.000,,,,,
1_S5,09/05/2023,10:38:20.500,-0.063,-0.125,1.000,-3975.0,-4669.5,3328.5,,
1_S5,09/05/2023,10:38:20.600,0.000,-0.063,1.000,,,,,
1_S5,09/05/2023,10:38:20.700,-0.063,-0.063,1.063,,,,,
1_S5,09/05/2023,10:38:20.800,-0.063,0.000,1.000,,,,,
1_S5,09/05/2023,10:38:20.900,-0.063,-0.063,1.000,,,,,
1_S5,09/05/2023,10:38:21.000,-0.063,-0.063,1.000,-568.5,-3180.0,2323.5,,
1_S5,09/05/2023,10:38:21.100,-0.063,-0.063,0.938,,,,,
1_S5,09/05/2023,10:38:21.200,-0.063,-0.125,1.000,,,,,
1_S5,09/05/2023,10:38:21.300,-0.063,-0.063,1.000,,,,,
1_S5,09/05/2023,10:38:21.400,-0.063,-0.063,1.000,,,,,
1_S5,09/05/2023,10:38:21.500,-0.063,-0.125,0.938,-138.0,-3786.0,2596.5,,
1_S5,09/05/2023,10:38:21.600,0.000,0.000,1.000,,,,,
1_S5,09/05/2023,10:38:21.700,-0.063,-0.063,0.938,,,,,
1_S5,09/05/2023,10:38:21.800,-0.125,-0.063,1.000,,,,,
1_S5,09/05/2023,10:38:21.900,0.000,-0.125,1.000,,,,,
1_S5,09/05/2023,10:38:22.000,-0.188,0.000,0.875,-1293.0,-3649.5,3003.0,,
1_S5,09/05/2023,10:38:22.100,-0.063,-0.125,1.000,,,,,
1_S5,09/05/2023,10:38:22.200,0.000,-0.063,1.188,,,,,
1_S5,09/05/2023,10:38:22.300,-0.063,-0.063,1.000,,,,,
1_S5,09/05/2023,10:38:22.400,-0.063,-0.063,1.063,,,,,
1_S5,09/05/2023,10:38:22.500,-0.063,-0.063,1.000,-2014.5,-3706.5,3010.5,,
