TagID,Date,Time,accX,accY,accZ,magX,magY,magZ,Temp. (?C),Metadata
2_S2,09/05/2023,09:51:23.000,0.000,-0.063,1.000,423.0,882.0,-154.5,25,
2_S2,09/05/2023,09:51:23.100,0.000,-0.063,0.944,,,,,
2_S2,09/05/2023,09:51:23.200,0.000,-0.063,0.988,,,,,
2_S2,09/05/2023,09:51:23.300,0.000,-0.063,1.044,,,,,
2_S2,09/05/2023,09:51:23.400,0.000,-0.063,1.025,,,,,
2_S2,09/05/2023,09:51:23.500,-0.031,-0.063,1.000,441.0,886.5,-156.0,,
2_S2,09/05/2023,09:51:23.600,-0.038,-0.063,1.000,,,,,
2_S2,09/05/2023,09:51:23.700,-0.019,-0.063,1.000,,,,,
2_S2,09/05/2023,09:51:23.800,-0.063,-0.075,1.000,,,,,
2_S2,09/05/2023,09:51:23.900,-0.063,-0.125,1.000,,,,,
2_S2,09/05/2023,09:51:24.000,0.000,-0.063,1.000,418.5,874.5,-157.5,,
2_S2,09/05/2023,09:51:24.100,-0.063,-0.063,1.000,,,,,
2_S2,09/05/2023,09:51:24.200,0.000,-0.063,1.000,,,,,
2_S2,09/05/2023,09:51:24.300,0.000,-0.063,1.000,,,,,
2_S2,09/05/2023,09:51:24.400,0.000,-0.063,1.000,,,,,
2_S2,09/05/2023,09:51:24.500,0.000,-0.063,1.000,418.5,877.5,-154.5,,
2_S2,09/05/2023,09:51:24.600,-0.063,-0.063,1.000,,,,,
2_S2,09/05/2023,09:51:24.700,0.000,-0.063,1.000,,,,,
2_S2,09/05/2023,09:51:24.800,0.000,-0.063,1.000,,,,,
2_S2,09/05/2023,09:51:24.900,0.000,-0.063,1.000,,,,,
2_S2,09/05/2023,09:51:25.000,0.000,-0.063,1.000,433.5,888.0,-145.5,,
2_S2,09/05/2023,09:51:25.100,0.000,-0.063,1.000,,,,,
2_S2,09/05/2023,09:51:25.200,0.000,-0.063,0.938,,,,,
2_S2,09/05/2023,09:51:25.300,0.000,-0.063,1.000,,,,,
2_S2,09/05/2023,09:51:25.400,0.000,-0.063,1.000,,,,,
2_S2,09/05/2023,09:51:25.500,0.000,-0.125,1.000,435.0,867.0,-156.0,,
2_S2,09/05/2023,09:51:25.600,0.000,-0.063,1.000,,,,,
2_S2,09/05/2023,09:51:25.700,0.000,-0.063,1.000,,,,,
2_S2,09/05/2023,09:51:25.800,0.000,-0.125,1.000,,,,,
2_S2,09/05/2023,09:51:25.900,0.000,-0.063,1.000,,,,,
2_S2,09/05/2023,09:51:26.000,0.000,-0.063,1.000,427.5,897.0,-162.0,,
2_S2,09/05/2023,09:51:26.100,0.000,-0.063,1.000,,,,,
2_S2,09/05/2023,09:51:26.200,0.000,-0.125,1.000,,,,,
2_S2,09/05/2023,09:51:26.300,-0.063,-0.063,1.000,,,,,
2_S2,09/05/2023,09:51:26.400,0.000,-0.063,1.000,,,,,
2_S2,09/05/2023,09:51:26.500,-0.063,-0.125,1.000,421.5,879.0,-132.0,,
2_S2,09/05/2023,09:51:26.600,0.000,0.000,0.938,,,,,
2_S2,09/05/2023,09:51:26.700,-0.063,-0.063,1.000,,,,,
2_S2,09/05/2023,09:51:26.800,0.000,-0.063,1.000,,,,,
2_S2,09/05/2023,09:51:26.900,-0.063,-0.063,0.938,,,,,
2_S2,09/05/2023,09:51:27.000,0.000,-0.063,0.938,436.5,880.5,-148.5,,
2_S2,09/05/2023,09:51:27.100,0.000,-0.063,1.000,,,,,
2_S2,09/05/2023,09:51:27.200,0.000,-0.063,1.000,,,,,
2_S2,09/05/2023,09:51:27.300,0.000,-0.063,1.000,,,,,
2_S2,09/05/2023,09:51:27.400,0.000,-0.063,1.000,,,,,
2_S2,09/05/2023,09:51:27.500,-0.063,-0.063,1.000,427.5,888.0,-162.0,,
2_S2,09/05/2023,09:51:27.600,0.000,-0.063,1.000,,,,,
2_S2,09/05/2023,09:51:27.700,-0.063,-0.063,1.000,,,,,
2_S2,09/05/2023,09:51:27.800,0.000,-0.063,0.938,,,,,
2_S2,09/05/2023,09:51:27.900,0.000,-0.063,1.000,,,,,
2_S2,09/05/2023,09:51:28.000,0.000,-0.063,1.000,444.0,895.5,-148.5,,
2_S2,09/05/2023,09:51:28.100,0.000,-0.063,1.000,,,,,
2_S2,09/05/2023,09:51:28.200,0.000,-0.063,0.950,,,,,
2_S2,09/05/2023,09:51:28.300,-0.044,-0.063,0.982,,,,,
2_S2,09/05/2023,09:51:28.400,-0.063,-0.063,0.963,,,,,
2_S2,09/05/2023,09:51:28.500,-0.031,-0.063,1.000,427.5,891.0,-147.0,,
2_S2,09/05/2023,09:51:28.600,0.000,-0.063,1.038,,,,,
2_S2,09/05/2023,09:51:28.700,-0.019,-0.063,0.982,,,,,
2_S2,09/05/2023,09:51:28.800,-0.050,-0.063,0.950,,,,,
2_S2,09/05/2023,09:51:28.900,0.000,-0.063,1.000,,,,,
2_S2,09/05/2023,09:51:29.000,0.000,-0.063,1.000,430.5,879.0,-145.5,,
2_S2,09/05/2023,09:51:29.100,0.000,-0.063,1.000,,,,,
2_S2,09/05/2023,09:51:29.200,0.000,-0.063,1.000,,,,,
2_S2,09/05/2023,09:51:29.300,0.000,-0.063,1.000,,,,,
2_S2,09/05/2023,09:51:29.400,-0.063,-0.063,1.000,,,,,
2_S2,09/05/2023,09:51:29.500,0.000,-0.063,1.000,441.0,870.0,-145.5,,
2_S2,09/05/2023,09:51:29.600,-0.063,-0.063,0.938,,,,,
2_S2,09/05/2023,09:51:29.700,-0.063,-0.063,1.000,,,,,
2_S2,09/05/2023,09:51:29.800,-0.063,-0.125,1.000,,,,,
2_S2,09/05/2023,09:51:29.900,0.000,-0.063,1.000,,,,,
2_S2,09/05/2023,09:51:30.000,0.000,-0.063,1.000,429.0,874.5,-139.5,,
2_S2,09/05/2023,09:51:30.100,0.000,-0.063,1.000,,,,,
2_S2,09/05/2023,09:51:30.200,-0.063,-0.063,1.000,,,,,
2_S2,09/05/2023,09:51:30.300,-0.063,0.000,0.875,,,,,
2_S2,09/05/2023,09:51:30.400,0.000,0.000,1.000,,,,,
2_S2,09/05/2023,09:51:30.500,0.000,-0.063,1.000,448.5,882.0,-160.5,,
2_S2,09/05/2023,09:51:30.600,0.000,-0.063,1.000,,,,,
2_S2,09/05/2023,09:51:30.700,0.000,-0.063,1.063,,,,,
2_S2,09/05/2023,09:51:30.800,-0.063,-0.063,1.000,,,,,
2_S2,09/05/2023,09:51:30.900,0.000,-0.125,1.000,,,,,
2_S2,09/05/2023,09:51:31.000,-0.063,-0.063,1.000,438.0,865.5,-165.0,,
2_S2,09/05/2023,09:51:31.100,0.000,0.000,1.000,,,,,
2_S2,09/05/2023,09:51:31.200,-0.063,-0.063,1.000,,,,,
2_S2,09/05/2023,09:51:31.300,-0.063,-0.063,1.000,,,,,
2_S2,09/05/2023,09:51:31.400,-0.063,-0.063,1.000,,,,,
2_S2,09/05/2023,09:51:31.500,-0.063,-0.063,0.938,439.5,868.5,-175.5,,
2_S2,09/05/2023,09:51:31.600,-0.063,-0.063,1.000,,,,,
2_S2,09/05/2023,09:51:31.700,0.000,-0.063,1.000,,,,,
2_S2,09/05/2023,09:51:31.800,-0.063,-0.063,1.000,,,,,
2_S2,09/05/2023,09:51:31.900,0.000,-0.063,1.000,,,,,
2_S2,09/05/2023,09:51:32.000,0.000,-0.125,1.000,465.0,889.5,-196.5,,
2_S2,09/05/2023,09:51:32.100,0.000,-0.063,1.000,,,,,
2_S2,09/05/2023,09:51:32.200,-0.063,-0.063,1.000,,,,,
2_S2,09/05/2023,09:51:32.300,0.000,-0.063,1.000,,,,,
2_S2,09/05/2023,09:51:32.400,0.000,-0.063,1.000,,,,,
2_S2,09/05/2023,09:51:32.500,-0.063,-0.063,1.000,444.0,885.0,-160.5,,
2_S2,09/05/2023,09:51:32.600,-0.063,-0.063,1.000,,,,,
2_S2,09/05/2023,09:51:32.700,-0.063,-0.063,1.000,,,,,
2_S2,09/05/2023,09:51:32.800,0.000,-0.063,0.938,,,,,
2_S2,09/05/2023,09:51:32.900,0.000,-0.063,1.000,,,,,
2_S2,09/05/2023,09:51:33.000,0.000,-0.063,1.000,426.0,888.0,-133.5,,
2_S2,09/05/2023,09:51:33.100,0.000,-0.063,1.000,,,,,
2_S2,09/05/2023,09:51:33.200,0.000,-0.063,1.000,,,,,
2_S2,09/05/2023,09:51:33.300,0.000,-0.063,0.957,,,,,
2_S2,09/05/2023,09:51:33.400,-0.038,-0.063,0.975,,,,,
2_S2,09/05/2023,09:51:33.500,-0.031,-0.063,1.032,453.0,882.0,-142.5,,
2_S2,09/05/2023,09:51:33.600,0.000,-0.063,1.038,,,,,
2_S2,09/05/2023,09:51:33.700,0.000,-0.063,1.000,,,,,
2_S2,09/05/2023,09:51:33.800,0.000,-0.063,1.000,,,,,
2_S2,09/05/2023,09:51:33.900,0.000,-0.063,1.000,,,,,
2_S2,09/05/2023,09:51:34.000,0.000,-0.063,1.000,426.0,870.0,-168.0,,
2_S2,09/05/2023,09:51:34.100,0.000,-0.063,1.000,,,,,
2_S2,09/05/2023,09:51:34.200,0.000,-0.063,1.000,,,,,
2_S2,09/05/2023,09:51:34.300,0.000,-0.063,1.000,,,,,
2_S2,09/05/2023,09:51:34.400,-0.063,-0.063,1.000,,,,,
2_S2,09/05/2023,09:51:34.500,0.000,-0.063,1.000,447.0,876.0,-147.0,,
2_S2,09/05/2023,09:51:34.600,0.000,-0.063,1.000,,,,,
2_S2,09/05/2023,09:51:34.700,-0.063,-0.125,1.000,,,,,
2_S2,09/05/2023,09:51:34.800,0.000,-0.063,1.000,,,,,
2_S2,09/05/2023,09:51:34.900,-0.063,-0.063,1.000,,,,,
2_S2,09/05/2023,09:51:35.000,-0.063,-0.063,1.000,451.5,909.0,-127.5,,
2_S2,09/05/2023,09:51:35.100,0.000,-0.125,1.000,,,,,
2_S2,09/05/2023,09:51:35.200,0.000,-0.063,1.000,,,,,
2_S2,09/05/2023,09:51:35.300,-0.063,-0.125,1.000,,,,,
2_S2,09/05/2023,09:51:35.400,0.000,-0.063,0.938,,,,,
2_S2,09/05/2023,09:51:35.500,-0.063,-0.063,1.000,457.5,927.0,-118.5,,
2_S2,09/05/2023,09:51:35.600,-0.063,-0.063,0.938,,,,,
2_S2,09/05/2023,09:51:35.700,-0.063,-0.063,1.000,,,,,
2_S2,09/05/2023,09:51:35.800,0.000,-0.063,1.000,,,,,
2_S2,09/05/2023,09:51:35.900,0.000,-0.063,1.063,,,,,
2_S2,09/05/2023,09:51:36.000,0.000,-0.063,1.000,442.5,903.0,-151.5,,
2_S2,09/05/2023,09:51:36.100,-0.063,-0.063,1.000,,,,,
2_S2,09/05/2023,09:51:36.200,0.000,-0.063,1.000,,,,,
2_S2,09/05/2023,09:51:36.300,0.000,-0.063,1.000,,,,,
2_S2,09/05/2023,09:51:36.400,0.000,-0.063,1.000,,,,,
2_S2,09/05/2023,09:51:36.500,-0.063,-0.063,1.000,424.5,891.0,-142.5,,
2_S2,09/05/2023,09:51:36.600,-0.063,-0.125,1.000,,,,,
2_S2,09/05/2023,09:51:36.700,0.000,-0.063,0.938,,,,,
2_S2,09/05/2023,09:51:36.800,-0.063,-0.063,1.000,,,,,
2_S2,09/05/2023,09:51:36.900,-0.063,-0.063,1.000,,,,,
2_S2,09/05/2023,09:51:37.000,-0.063,-0.063,1.000,429.0,879.0,-126.0,,
2_S2,09/05/2023,09:51:37.100,0.000,-0.063,0.875,,,,,
2_S2,09/05/2023,09:51:37.200,0.000,-0.063,0.938,,,,,
2_S2,09/05/2023,09:51:37.300,0.000,-0.125,1.000,,,,,
2_S2,09/05/2023,09:51:37.400,0.000,-0.063,1.000,,,,,
2_S2,09/05/2023,09:51:37.500,0.000,-0.063,1.000,430.5,879.0,-150.0,,
2_S2,09/05/2023,09:51:37.600,0.000,-0.063,1.000,,,,,
2_S2,09/05/2023,09:51:37.700,0.000,-0.063,1.000,,,,,
2_S2,09/05/2023,09:51:37.800,0.000,-0.063,1.000,,,,,
2_S2,09/05/2023,09:51:37.900,0.000,-0.063,1.000,,,,,
2_S2,09/05/2023,09:51:38.000,0.000,-0.063,1.000,438.0,880.5,-160.5,,
2_S2,09/05/2023,09:51:38.100,-0.063,-0.063,1.000,,,,,
2_S2,09/05/2023,09:51:38.200,0.000,0.000,1.000,,,,,
2_S2,09/05/2023,09:51:38.300,0.000,-0.063,1.000,,,,,
2_S2,09/05/2023,09:51:38.400,-0.063,-0.063,1.063,,,,,
2_S2,09/05/2023,09:51:38.500,-0.063,-0.063,1.000,442.5,891.0,-151.5,,
2_S2,09/05/2023,09:51:38.600,0.000,0.000,1.000,,,,,
2_S2,09/05/2023,09:51:38.700,0.000,-0.063,1.000,,,,,
2_S2,09/05/2023,09:51:38.800,-0.063,-0.063,1.000,,,,,
2_S2,09/05/2023,09:51:38.900,0.000,-0.063,1.000,,,,,
2_S2,09/05/2023,09:51:39.000,0.000,-0.063,1.000,451.5,882.0,-162.0,,
2_S2,09/05/2023,09:51:39.100,0.000,-0.063,1.000,,,,,
2_S2,09/05/2023,09:51:39.200,0.000,-0.063,1.000,,,,,
2_S2,09/05/2023,09:51:39.300,0.000,-0.063,1.000,,,,,
2_S2,09/05/2023,09:51:39.400,0.000,-0.063,0.963,,,,,
2_S2,09/05/2023,09:51:39.500,-0.031,-0.063,0.969,433.5,897.0,-172.5,,
2_S2,09/05/2023,09:51:39.600,-0.063,-0.063,1.000,,,,,
2_S2,09/05/2023,09:51:39.700,-0.063,-0.063,1.000,,,,,
2_S2,09/05/2023,09:51:39.800,-0.050,-0.063,1.000,,,,,
2_S2,09/05/2023,09:51:39.900,0.000,-0.063,1.000,,,,,
2_S2,09/05/2023,09:51:40.000,0.000,-0.063,1.000,435.0,856.5,-171.0,,
2_S2,09/05/2023,09:51:40.100,-0.063,-0.125,1.000,,,,,
2_S2,09/05/2023,09:51:40.200,0.000,-0.063,0.938,,,,,
2_S2,09/05/2023,09:51:40.300,0.000,-0.063,1.000,,,,,
2_S2,09/05/2023,09:51:40.400,0.000,-0.063,1.000,,,,,
2_S2,09/05/2023,09:51:40.500,-0.063,-0.063,1.000,445.5,885.0,-178.5,,
2_S2,09/05/2023,09:51:40.600,-0.063,-0.063,1.000,,,,,
2_S2,09/05/2023,09:51:40.700,0.000,-0.063,1.000,,,,,
2_S2,09/05/2023,09:51:40.800,-0.063,-0.063,1.000,,,,,
2_S2,09/05/2023,09:51:40.900,-0.063,-0.063,1.000,,,,,
2_S2,09/05/2023,09:51:41.000,0.000,-0.063,1.000,430.5,868.5,-148.5,,
2_S2,09/05/2023,09:51:41.100,0.000,0.000,1.000,,,,,
2_S2,09/05/2023,09:51:41.200,0.000,-0.063,1.000,,,,,
2_S2,09/05/2023,09:51:41.300,-0.063,-0.063,1.000,,,,,
2_S2,09/05/2023,09:51:41.400,0.000,-0.063,1.000,,,,,
2_S2,09/05/2023,09:51:41.500,0.000,-0.063,1.000,426.0,879.0,-150.0,,
2_S2,09/05/2023,09:51:41.600,-0.063,-0.063,0.938,,,,,
2_S2,09/05/2023,09:51:41.700,0.000,-0.063,0.938,,,,,
2_S2,09/05/2023,09:51:41.800,-0.063,-0.063,1.063,,,,,
2_S2,09/05/2023,09:51:41.900,-0.063,-0.063,1.000,,,,,
2_S2,09/05/2023,09:51:42.000,-0.063,-0.063,1.000,424.5,874.5,-144.0,,
2_S2,09/05/2023,09:51:42.100,-0.063,-0.063,1.000,,,,,
2_S2,09/05/2023,09:51:42.200,-0.063,-0.063,1.000,,,,,
2_S2,09/05/2023,09:51:42.300,0.000,-0.063,1.000,,,,,
2_S2,09/05/2023,09:51:42.400,-0.063,-0.063,1.000,,,,,
2_S2,09/05/2023,09:51:42.500,-0.063,-0.063,1.000,454.5,877.5,-129.0,,
2_S2,09/05/2023,09:51:42.600,0.000,-0.063,1.000,,,,,
2_S2,09/05/2023,09:51:42.700,0.000,0.000,1.000,,,,,
2_S2,09/05/2023,09:51:42.800,0.000,-0.063,1.000,,,,,
2_S2,09/05/2023,09:51:42.900,0.000,-0.063,1.000,,,,,
2_S2,09/05/2023,09:51:43.000,-0.063,-0.063,1.000,444.0,877.5,-141.0,,
2_S2,09/05/2023,09:51:43.100,0.000,-0.063,1.063,,,,,
2_S2,09/05/2023,09:51:43.200,0.000,-0.063,1.000,,,,,
2_S2,09/05/2023,09:51:43.300,-0.063,-0.063,1.000,,,,,
2_S2,09/05/2023,09:51:43.400,-0.063,-0.125,1.000,,,,,
2_S2,09/05/2023,09:51:43.500,-0.063,-0.063,1.000,426.0,882.0,-141.0,,
2_S2,09/05/2023,09:51:43.600,0.000,-0.063,1.000,,,,,
2_S2,09/05/2023,09:51:43.700,0.000,-0.063,1.000,,,,,
2_S2,09/05/2023,09:51:43.800,0.000,-0.063,0.938,,,,,
2_S2,09/05/2023,09:51:43.900,-0.063,-0.063,1.063,,,,,
2_S2,09/05/2023,09:51:44.000,0.000,0.000,1.000,417.0,873.0,-132.0,,
2_S2,09/05/2023,09:51:44.100,-0.056,-0.056,0.944,,,,,
2_S2,09/05/2023,09:51:44.200,-0.063,-0.063,0.988,,,,,
2_S2,09/05/2023,09:51:44.300,-0.019,-0.063,1.044,,,,,
2_S2,09/05/2023,09:51:44.400,0.000,-0.063,1.025,,,,,
2_S2,09/05/2023,09:51:44.500,-0.031,-0.063,1.000,426.0,874.5,-132.0,,
2_S2,09/05/2023,09:51:44.600,-0.038,-0.063,1.000,,,,,
2_S2,09/05/2023,09:51:44.700,0.000,-0.081,1.000,,,,,
2_S2,09/05/2023,09:51:44.800,0.000,-0.113,0.988,,,,,
2_S2,09/05/2023,09:51:44.900,0.000,-0.063,0.938,,,,,
2_S2,09/05/2023,09:51:45.000,0.000,0.000,1.000,439.5,880.5,-139.5,,
2_S2,09/05/2023,09:51:45.100,0.000,-0.063,1.000,,,,,
2_S2,09/05/2023,09:51:45.200,0.000,-0.063,1.000,,,,,
2_S2,09/05/2023,09:51:45.300,0.000,-0.063,1.063,,,,,
2_S2,09/05/2023,09:51:45.400,0.000,0.000,0.938,,,,,
2_S2,09/05/2023,09:51:45.500,0.000,-0.063,1.000,420.0,880.5,-138.0,,
2_S2,09/05/2023,09:51:45.600,0.000,-0.063,0.938,,,,,
2_S2,09/05/2023,09:51:45.700,0.000,-0.063,1.000,,,,,
2_S2,09/05/2023,09:51:45.800,-0.063,-0.063,1.000,,,,,
2_S2,09/05/2023,09:51:45.900,0.000,-0.063,1.000,,,,,
2_S2,09/05/2023,09:51:46.000,0.000,-0.125,1.000,429.0,882.0,-127.5,,
2_S2,09/05/2023,09:51:46.100,0.000,-0.063,1.000,,,,,
2_S2,09/05/2023,09:51:46.200,0.000,-0.063,1.000,,,,,
2_S2,09/05/2023,09:51:46.300,0.000,-0.063,1.000,,,,,
2_S2,09/05/2023,09:51:46.400,0.000,-0.063,1.000,,,,,
2_S2,09/05/2023,09:51:46.500,-0.063,-0.125,1.000,444.0,898.5,-135.0,,
2_S2,09/05/2023,09:51:46.600,-0.063,-0.063,1.063,,,,,
2_S2,09/05/2023,09:51:46.700,0.000,-0.063,1.000,,,,,
2_S2,09/05/2023,09:51:46.800,0.000,-0.063,1.000,,,,,
2_S2,09/05/2023,09:51:46.900,0.000,-0.063,1.000,,,,,
2_S2,09/05/2023,09:51:47.000,0.000,-0.063,1.000,450.0,864.0,-133.5,,
2_S2,09/05/2023,09:51:47.100,0.000,-0.063,1.000,,,,,
2_S2,09/05/2023,09:51:47.200,0.000,-0.063,1.000,,,,,
2_S2,09/05/2023,09:51:47.300,-0.063,-0.063,1.000,,,,,
2_S2,09/05/2023,09:51:47.400,0.000,-0.063,0.938,,,,,
2_S2,09/05/2023,09:51:47.500,-0.063,-0.063,1.000,442.5,876.0,-138.0,,
2_S2,09/05/2023,09:51:47.600,0.000,-0.063,1.000,,,,,
2_S2,09/05/2023,09:51:47.700,0.000,-0.063,1.000,,,,,
2_S2,09/05/2023,09:51:47.800,0.000,-0.063,0.938,,,,,
2_S2,09/05/2023,09:51:47.900,0.000,-0.063,1.000,,,,,
2_S2,09/05/2023,09:51:48.000,0.000,-0.063,1.000,444.0,883.5,-132.0,,
2_S2,09/05/2023,09:51:48.100,0.000,-0.063,0.938,,,,,
2_S2,09/05/2023,09:51:48.200,-0.063,-0.063,1.000,,,,,
2_S2,09/05/2023,09:51:48.300,-0.063,-0.063,1.000,,,,,
2_S2,09/05/2023,09:51:48.400,0.000,-0.063,1.000,,,,,
2_S2,09/05/2023,09:51:48.500,0.000,-0.063,1.000,438.0,888.0,-135.0,,
2_S2,09/05/2023,09:51:48.600,-0.063,-0.063,1.000,,,,,
2_S2,09/05/2023,09:51:48.700,-0.063,-0.063,1.000,,,,,
2_S2,09/05/2023,09:51:48.800,-0.063,-0.125,1.000,,,,,
2_S2,09/05/2023,09:51:48.900,-0.063,-0.063,0.938,,,,,
2_S2,09/05/2023,09:51:49.000,0.000,-0.125,1.063,435.0,879.0,-136.5,,
2_S2,09/05/2023,09:51:49.100,0.000,-0.069,0.950,,,,,
2_S2,09/05/2023,09:51:49.200,-0.050,-0.113,1.038,,,,,
2_S2,09/05/2023,09:51:49.300,-0.019,-0.081,1.019,,,,,
2_S2,09/05/2023,09:51:49.400,0.000,-0.063,1.000,,,,,
2_S2,09/05/2023,09:51:49.500,0.000,-0.063,1.000,438.0,865.5,-115.5,,
2_S2,09/05/2023,09:51:49.600,-0.025,-0.063,1.000,,,,,
2_S2,09/05/2023,09:51:49.700,-0.044,-0.063,1.000,,,,,
2_S2,09/05/2023,09:51:49.800,0.000,-0.063,1.000,,,,,
2_S2,09/05/2023,09:51:49.900,0.000,-0.063,1.000,,,,,
2_S2,09/05/2023,09:51:50.000,0.000,-0.063,1.000,454.5,894.0,-124.5,,
2_S2,09/05/2023,09:51:50.100,-0.063,-0.125,1.000,,,,,
2_S2,09/05/2023,09:51:50.200,0.000,-0.063,0.938,,,,,
2_S2,09/05/2023,09:51:50.300,0.000,-0.063,0.938,,,,,
2_S2,09/05/2023,09:51:50.400,0.000,-0.063,1.000,,,,,
2_S2,09/05/2023,09:51:50.500,0.000,0.000,1.000,426.0,885.0,-126.0,,
2_S2,09/05/2023,09:51:50.600,-0.063,-0.063,1.000,,,,,
2_S2,09/05/2023,09:51:50.700,0.000,-0.125,1.000,,,,,
2_S2,09/05/2023,09:51:50.800,0.000,-0.063,1.000,,,,,
2_S2,09/05/2023,09:51:50.900,0.000,-0.063,1.000,,,,,
2_S2,09/05/2023,09:51:51.000,0.000,-0.063,1.000,433.5,874.5,-127.5,,
2_S2,09/05/2023,09:51:51.100,-0.063,-0.063,1.000,,,,,
2_S2,09/05/2023,09:51:51.200,0.000,-0.063,1.000,,,,,
2_S2,09/05/2023,09:51:51.300,-0.063,-0.063,1.000,,,,,
2_S2,09/05/2023,09:51:51.400,-0.063,-0.063,0.938,,,,,
2_S2,09/05/2023,09:51:51.500,0.000,-0.063,1.000,418.5,870.0,-145.5,,
2_S2,09/05/2023,09:51:51.600,-0.063,-0.063,1.000,,,,,
2_S2,09/05/2023,09:51:51.700,0.000,-0.063,1.000,,,,,
2_S2,09/05/2023,09:51:51.800,0.000,-0.063,1.000,,,,,
2_S2,09/05/2023,09:51:51.900,0.000,-0.063,1.000,,,,,
2_S2,09/05/2023,09:51:52.000,0.000,-0.063,1.000,424.5,874.5,-129.0,,
2_S2,09/05/2023,09:51:52.100,-0.063,-0.063,1.000,,,,,
2_S2,09/05/2023,09:51:52.200,-0.063,-0.063,1.000,,,,,
2_S2,09/05/2023,09:51:52.300,0.000,-0.063,1.063,,,,,
2_S2,09/05/2023,09:51:52.400,-0.063,-0.063,1.000,,,,,
2_S2,09/05/2023,09:51:52.500,0.000,-0.063,0.938,447.0,871.5,-145.5,,
2_S2,09/05/2023,09:51:52.600,0.000,-0.063,1.000,,,,,
2_S2,09/05/2023,09:51:52.700,-0.063,-0.063,1.000,,,,,
2_S2,09/05/2023,09:51:52.800,0.000,-0.063,1.063,,,,,
2_S2,09/05/2023,09:51:52.900,-0.063,-0.063,1.000,,,,,
2_S2,09/05/2023,09:51:53.000,0.000,-0.063,1.000,445.5,865.5,-142.5,,
2_S2,09/05/2023,09:51:53.100,-0.063,-0.125,1.000,,,,,
2_S2,09/05/2023,09:51:53.200,-0.063,-0.063,1.000,,,,,
2_S2,09/05/2023,09:51:53.300,0.000,-0.063,1.000,,,,,
2_S2,09/05/2023,09:51:53.400,0.000,-0.063,1.000,,,,,
2_S2,09/05/2023,09:51:53.500,-0.063,-0.063,0.938,432.0,870.0,-136.5,,
2_S2,09/05/2023,09:51:53.600,-0.063,-0.063,0.938,,,,,
2_S2,09/05/2023,09:51:53.700,-0.063,-0.063,0.938,,,,,
2_S2,09/05/2023,09:51:53.800,0.000,-0.063,1.000,,,,,
2_S2,09/05/2023,09:51:53.900,0.000,-0.063,0.938,,,,,
2_S2,09/05/2023,09:51:54.000,0.000,-0.063,1.063,451.5,871.5,-142.5,,
2_S2,09/05/2023,09:51:54.100,-0.063,-0.063,1.000,,,,,
2_S2,09/05/2023,09:51:54.200,0.000,-0.063,0.938,,,,,
2_S2,09/05/2023,09:51:54.300,0.000,-0.125,1.000,,,,,
2_S2,09/05/2023,09:51:54.400,-0.063,0.000,1.000,,,,,
2_S2,09/05/2023,09:51:54.500,0.000,-0.063,1.000,418.5,862.5,-138.0,,
2_S2,09/05/2023,09:51:54.600,0.000,-0.063,0.938,,,,,
2_S2,09/05/2023,09:51:54.700,0.000,-0.063,1.000,,,,,
2_S2,09/05/2023,09:51:54.800,-0.063,-0.063,1.000,,,,,
2_S2,09/05/2023,09:51:54.900,-0.063,-0.063,1.000,,,,,
2_S2,09/05/2023,09:51:55.000,-0.063,-0.063,1.000,423.0,877.5,-130.5,,
2_S2,09/05/2023,09:51:55.100,-0.063,-0.063,1.000,,,,,
2_S2,09/05/2023,09:51:55.200,-0.063,-0.063,1.000,,,,,
2_S2,09/05/2023,09:51:55.300,-0.019,-0.063,1.044,,,,,
2_S2,09/05/2023,09:51:55.400,0.000,-0.063,1.025,,,,,
2_S2,09/05/2023,09:51:55.500,0.000,-0.063,1.000,436.5,868.5,-114.0,,
2_S2,09/05/2023,09:51:55.600,0.000,-0.063,1.000,,,,,
2_S2,09/05/2023,09:51:55.700,0.000,-0.063,1.000,,,,,
2_S2,09/05/2023,09:51:55.800,-0.013,-0.063,1.000,,,,,
2_S2,09/05/2023,09:51:55.900,-0.063,-0.063,1.000,,,,,
2_S2,09/05/2023,09:51:56.000,-0.063,0.000,0.938,427.5,885.0,-145.5,,
2_S2,09/05/2023,09:51:56.100,0.000,-0.063,1.000,,,,,
2_S2,09/05/2023,09:51:56.200,0.000,-0.063,1.000,,,,,
2_S2,09/05/2023,09:51:56.300,0.000,-0.063,1.000,,,,,
2_S2,09/05/2023,09:51:56.400,0.000,-0.063,0.938,,,,,
2_S2,09/05/2023,09:51:56.500,0.000,-0.063,1.000,399.0,865.5,-127.5,,
2_S2,09/05/2023,09:51:56.600,0.000,-0.063,1.000,,,,,
2_S2,09/05/2023,09:51:56.700,0.000,-0.125,1.000,,,,,
2_S2,09/05/2023,09:51:56.800,0.000,-0.063,1.000,,,,,
2_S2,09/05/2023,09:51:56.900,0.000,-0.063,1.000,,,,,
2_S2,09/05/2023,09:51:57.000,0.000,-0.063,1.000,390.0,892.5,-135.0,,
2_S2,09/05/2023,09:51:57.100,0.000,-0.063,1.000,,,,,
2_S2,09/05/2023,09:51:57.200,0.063,0.188,0.750,,,,,
2_S2,09/05/2023,09:51:57.300,-0.063,-0.125,1.000,,,,,
2_S2,09/05/2023,09:51:57.400,-0.063,-0.063,0.938,,,,,
2_S2,09/05/2023,09:51:57.500,-0.063,-0.063,1.000,360.0,913.5,-199.5,,
2_S2,09/05/2023,09:51:57.600,-0.063,0.000,1.000,,,,,
2_S2,09/05/2023,09:51:57.700,-0.063,0.000,1.000,,,,,
2_S2,09/05/2023,09:51:57.800,-0.125,-0.063,1.000,,,,,
2_S2,09/05/2023,09:51:57.900,-0.063,-0.063,1.000,,,,,
2_S2,09/05/2023,09:51:58.000,-0.063,-0.063,1.000,369.0,910.5,-163.5,,
2_S2,09/05/2023,09:51:58.100,-0.063,-0.063,1.000,,,,,
2_S2,09/05/2023,09:51:58.200,-0.063,-0.063,1.000,,,,,
2_S2,09/05/2023,09:51:58.300,-0.063,-0.063,1.000,,,,,
2_S2,09/05/2023,09:51:58.400,0.000,-0.063,1.000,,,,,
2_S2,09/05/2023,09:51:58.500,-0.063,-0.063,1.000,388.5,889.5,-130.5,,
2_S2,09/05/2023,09:51:58.600,-0.063,-0.063,1.000,,,,,
2_S2,09/05/2023,09:51:58.700,-0.063,-0.125,1.000,,,,,
2_S2,09/05/2023,09:51:58.800,-0.063,0.000,1.000,,,,,
2_S2,09/05/2023,09:51:58.900,0.000,-0.063,1.000,,,,,
2_S2,09/05/2023,09:51:59.000,-0.063,-0.063,1.000,379.5,909.0,-112.5,,
2_S2,09/05/2023,09:51:59.100,-0.063,-0.063,1.000,,,,,
2_S2,09/05/2023,09:51:59.200,-0.063,-0.063,1.000,,,,,
2_S2,09/05/2023,09:51:59.300,0.000,0.000,1.000,,,,,
2_S2,09/05/2023,09:51:59.400,-0.063,-0.063,1.000,,,,,
2_S2,09/05/2023,09:51:59.500,0.000,-0.063,1.000,-586.5,1407.0,43.5,,
2_S2,09/05/2023,09:51:59.600,-0.125,-0.125,0.875,,,,,
2_S2,09/05/2023,09:51:59.700,-0.063,-0.063,1.063,,,,,
2_S2,09/05/2023,09:51:59.800,-0.063,-0.063,1.000,,,,,
2_S2,09/05/2023,09:51:59.900,0.000,-0.125,1.063,,,,,
2_S2,09/05/2023,09:52:00.000,0.000,-0.063,0.938,-1537.5,-3700.5,1669.5,,
2_S2,09/05/2023,09:52:00.100,-0.056,-0.063,0.994,,,,,
2_S2,09/05/2023,09:52:00.200,-0.013,-0.063,1.050,,,,,
2_S2,09/05/2023,09:52:00.300,0.000,-0.063,0.975,,,,,
2_S2,09/05/2023,09:52:00.400,0.038,-0.063,0.938,,,,,
2_S2,09/05/2023,09:52:00.500,0.031,-0.063,0.938,-1557.0,-3717.0,1681.5,,
2_S2,09/05/2023,09:52:00.600,0.000,-0.038,0.963,,,,,
2_S2,09/05/2023,09:52:00.700,0.000,-0.019,1.000,,,,,
2_S2,09/05/2023,09:52:00.800,0.000,-0.063,1.000,,,,,
2_S2,09/05/2023,09:52:00.900,0.000,-0.063,1.000,,,,,
2_S2,09/05/2023,09:52:01.000,0.000,-0.063,1.000,-1579.5,-3708.0,1671.0,,
2_S2,09/05/2023,09:52:01.100,0.000,-0.063,1.000,,,,,
2_S2,09/05/2023,09:52:01.200,0.000,-0.063,1.000,,,,,
2_S2,09/05/2023,09:52:01.300,0.000,-0.063,1.000,,,,,
2_S2,09/05/2023,09:52:01.400,0.000,-0.063,1.000,,,,,
2_S2,09/05/2023,09:52:01.500,0.000,-0.125,1.000,-1570.5,-3706.5,1672.5,,
2_S2,09/05/2023,09:52:01.600,0.000,-0.063,1.000,,,,,
2_S2,09/05/2023,09:52:01.700,-0.063,-0.063,1.000,,,,,
2_S2,09/05/2023,09:52:01.800,0.000,-0.063,1.000,,,,,
2_S2,09/05/2023,09:52:01.900,-0.063,-0.063,1.000,,,,,
2_S2,09/05/2023,09:52:02.000,0.000,-0.063,1.000,-1549.5,-3720.0,1672.5,,
2_S2,09/05/2023,09:52:02.100,0.000,-0.063,1.000,,,,,
2_S2,09/05/2023,09:52:02.200,0.000,-0.063,1.000,,,,,
2_S2,09/05/2023,09:52:02.300,0.000,-0.063,1.000,,,,,
2_S2,09/05/2023,09:52:02.400,0.000,-0.063,1.000,,,,,
2_S2,09/05/2023,09:52:02.500,0.000,-0.063,1.000,-1566.0,-3709.5,1681.5,,
2_S2,09/05/2023,09:52:02.600,0.000,-0.063,1.000,,,,,
2_S2,09/05/2023,09:52:02.700,0.000,-0.063,1.000,,,,,
2_S2,09/05/2023,09:52:02.800,0.000,-0.063,1.000,,,,,
2_S2,09/05/2023,09:52:02.900,-0.063,-0.063,0.938,,,,,
2_S2,09/05/2023,09:52:03.000,0.000,-0.063,1.000,-1564.5,-3711.0,1681.5,,
2_S2,09/05/2023,09:52:03.100,0.000,-0.125,1.000,,,,,
2_S2,09/05/2023,09:52:03.200,0.000,-0.063,1.000,,,,,
2_S2,09/05/2023,09:52:03.300,0.000,-0.063,1.000,,,,,
2_S2,09/05/2023,09:52:03.400,0.000,-0.063,1.000,,,,,
2_S2,09/05/2023,09:52:03.500,0.000,-0.063,1.000,-1572.0,-3697.5,1671.0,,
2_S2,09/05/2023,09:52:03.600,0.000,-0.125,1.000,,,,,
2_S2,09/05/2023,09:52:03.700,0.000,-0.063,0.938,,,,,
2_S2,09/05/2023,09:52:03.800,0.000,-0.125,0.938,,,,,
2_S2,09/05/2023,09:52:03.900,0.000,-0.063,0.938,,,,,
2_S2,09/05/2023,09:52:04.000,0.000,-0.063,1.000,-1563.0,-3703.5,1677.0,,
2_S2,09/05/2023,09:52:04.100,0.000,-0.063,0.938,,,,,
2_S2,09/05/2023,09:52:04.200,0.000,-0.063,1.000,,,,,
2_S2,09/05/2023,09:52:04.300,0.000,-0.063,0.938,,,,,
2_S2,09/05/2023,09:52:04.400,0.000,-0.063,1.000,,,,,
2_S2,09/05/2023,09:52:04.500,0.000,-0.063,1.000,-1569.0,-3706.5,1677.0,,
2_S2,09/05/2023,09:52:04.600,-0.063,-0.063,0.938,,,,,
2_S2,09/05/2023,09:52:04.700,0.000,-0.063,1.000,,,,,
2_S2,09/05/2023,09:52:04.800,0.000,-0.063,0.938,,,,,
2_S2,09/05/2023,09:52:04.900,0.000,-0.063,1.000,,,,,
2_S2,09/05/2023,09:52:05.000,-0.063,-0.063,0.938,-1561.5,-3718.5,1665.0,,
2_S2,09/05/2023,09:52:05.100,0.000,-0.063,1.000,,,,,
2_S2,09/05/2023,09:52:05.200,0.000,-0.063,1.000,,,,,
2_S2,09/05/2023,09:52:05.300,0.000,-0.125,1.000,,,,,
2_S2,09/05/2023,09:52:05.400,0.000,-0.063,1.000,,,,,
2_S2,09/05/2023,09:52:05.500,-0.063,-0.063,1.000,-1587.0,-3709.5,1669.5,,
2_S2,09/05/2023,09:52:05.600,0.000,-0.063,0.938,,,,,
2_S2,09/05/2023,09:52:05.700,-0.063,-0.063,1.000,,,,,
2_S2,09/05/2023,09:52:05.800,0.000,-0.063,1.000,,,,,
2_S2,09/05/2023,09:52:05.900,0.000,-0.063,1.000,,,,,
2_S2,09/05/2023,09:52:06.000,0.000,-0.063,1.000,-1579.5,-3708.0,1677.0,,
2_S2,09/05/2023,09:52:06.100,0.000,-0.063,1.000,,,,,
2_S2,09/05/2023,09:52:06.200,0.000,-0.063,1.000,,,,,
2_S2,09/05/2023,09:52:06.300,0.000,-0.063,1.000,,,,,
2_S2,09/05/2023,09:52:06.400,0.000,-0.063,1.000,,,,,
2_S2,09/05/2023,09:52:06.500,-0.031,-0.063,0.969,-1585.5,-3714.0,1665.0,,
2_S2,09/05/2023,09:52:06.600,-0.038,-0.063,0.938,,,,,
2_S2,09/05/2023,09:52:06.700,0.000,-0.063,0.957,,,,,
2_S2,09/05/2023,09:52:06.800,0.000,-0.063,1.000,,,,,
2_S2,09/05/2023,09:52:06.900,0.000,-0.063,1.000,,,,,
2_S2,09/05/2023,09:52:07.000,0.000,-0.063,1.000,-1575.0,-3727.5,1687.5,,
2_S2,09/05/2023,09:52:07.100,0.000,-0.063,1.000,,,,,
2_S2,09/05/2023,09:52:07.200,0.000,-0.063,1.000,,,,,
2_S2,09/05/2023,09:52:07.300,-0.063,-0.063,1.000,,,,,
2_S2,09/05/2023,09:52:07.400,0.000,-0.063,1.000,,,,,
2_S2,09/05/2023,09:52:07.500,0.000,-0.063,1.000,-1581.0,-3706.5,1657.5,,
2_S2,09/05/2023,09:52:07.600,0.000,-0.063,1.000,,,,,
2_S2,09/05/2023,09:52:07.700,0.000,-0.125,0.938,,,,,
2_S2,09/05/2023,09:52:07.800,0.000,-0.063,1.000,,,,,
2_S2,09/05/2023,09:52:07.900,0.000,0.000,1.000,,,,,
2_S2,09/05/2023,09:52:08.000,-0.063,-0.063,1.000,-1587.0,-3708.0,1684.5,,
2_S2,09/05/2023,09:52:08.100,0.000,-0.063,1.063,,,,,
2_S2,09/05/2023,09:52:08.200,0.000,0.000,1.000,,,,,
2_S2,09/05/2023,09:52:08.300,0.000,-0.063,1.000,,,,,
2_S2,09/05/2023,09:52:08.400,0.000,-0.063,1.063,,,,,
2_S2,09/05/2023,09:52:08.500,0.000,-0.063,0.938,-1575.0,-3735.0,1683.0,,
2_S2,09/05/2023,09:52:08.600,0.000,-0.063,1.000,,,,,
2_S2,09/05/2023,09:52:08.700,0.000,-0.063,1.000,,,,,
2_S2,09/05/2023,09:52:08.800,0.000,-0.063,1.000,,,,,
2_S2,09/05/2023,09:52:08.900,0.000,-0.063,1.000,,,,,
2_S2,09/05/2023,09:52:09.000,0.000,-0.063,1.000,-1569.0,-3709.5,1675.5,,
2_S2,09/05/2023,09:52:09.100,0.000,-0.063,1.000,,,,,
2_S2,09/05/2023,09:52:09.200,0.000,-0.063,1.000,,,,,
2_S2,09/05/2023,09:52:09.300,0.000,-0.125,1.000,,,,,
2_S2,09/05/2023,09:52:09.400,0.000,-0.063,1.000,,,,,
2_S2,09/05/2023,09:52:09.500,0.000,-0.063,1.000,-1578.0,-3694.5,1677.0,,
2_S2,09/05/2023,09:52:09.600,-0.063,-0.063,1.000,,,,,
2_S2,09/05/2023,09:52:09.700,0.000,-0.063,1.000,,,,,
2_S2,09/05/2023,09:52:09.800,0.000,-0.125,1.000,,,,,
2_S2,09/05/2023,09:52:09.900,0.000,-0.063,1.063,,,,,
2_S2,09/05/2023,09:52:10.000,0.000,-0.063,1.000,-1573.5,-3697.5,1665.0,,
2_S2,09/05/2023,09:52:10.100,0.000,-0.063,1.063,,,,,
2_S2,09/05/2023,09:52:10.200,0.000,-0.063,1.000,,,,,
2_S2,09/05/2023,09:52:10.300,0.000,-0.063,1.000,,,,,
2_S2,09/05/2023,09:52:10.400,0.000,-0.063,0.938,,,,,
2_S2,09/05/2023,09:52:10.500,0.000,-0.063,1.000,-1578.0,-3679.5,1671.0,,
2_S2,09/05/2023,09:52:10.600,0.000,-0.125,1.000,,,,,
2_S2,09/05/2023,09:52:10.700,0.000,-0.063,1.000,,,,,
2_S2,09/05/2023,09:52:10.800,0.000,-0.063,1.000,,,,,
2_S2,09/05/2023,09:52:10.900,0.000,-0.063,1.000,,,,,
2_S2,09/05/2023,09:52:11.000,0.000,-0.063,0.938,-1584.0,-3706.5,1669.5,,
2_S2,09/05/2023,09:52:11.100,0.000,-0.119,0.994,,,,,
2_S2,09/05/2023,09:52:11.200,0.000,-0.075,1.000,,,,,
2_S2,09/05/2023,09:52:11.300,0.000,-0.063,1.000,,,,,
2_S2,09/05/2023,09:52:11.400,0.000,-0.063,0.963,,,,,
2_S2,09/05/2023,09:52:11.500,0.000,-0.063,0.969,-1570.5,-3703.5,1668.0,,
2_S2,09/05/2023,09:52:11.600,0.000,-0.063,1.000,,,,,
2_S2,09/05/2023,09:52:11.700,0.000,-0.081,0.982,,,,,
2_S2,09/05/2023,09:52:11.800,0.000,-0.113,0.950,,,,,
2_S2,09/05/2023,09:52:11.900,0.000,-0.063,1.000,,,,,
2_S2,09/05/2023,09:52:12.000,-0.063,-0.063,1.000,-1561.5,-3687.0,1674.0,,
2_S2,09/05/2023,09:52:12.100,0.063,-0.063,1.000,,,,,
2_S2,09/05/2023,09:52:12.200,0.000,-0.125,1.000,,,,,
2_S2,09/05/2023,09:52:12.300,0.000,-0.063,1.000,,,,,
2_S2,09/05/2023,09:52:12.400,-0.063,-0.063,1.000,,,,,
2_S2,09/05/2023,09:52:12.500,0.000,-0.063,0.938,-1582.5,-3706.5,1666.5,,
2_S2,09/05/2023,09:52:12.600,-0.063,-0.063,1.063,,,,,
2_S2,09/05/2023,09:52:12.700,0.000,-0.063,1.000,,,,,
2_S2,09/05/2023,09:52:12.800,0.000,-0.063,1.000,,,,,
2_S2,09/05/2023,09:52:12.900,0.000,-0.125,0.938,,,,,
2_S2,09/05/2023,09:52:13.000,0.000,-0.063,1.000,-1572.0,-3702.0,1668.0,,
2_S2,09/05/2023,09:52:13.100,0.000,-0.063,1.000,,,,,
2_S2,09/05/2023,09:52:13.200,0.000,-0.063,1.000,,,,,
2_S2,09/05/2023,09:52:13.300,0.000,-0.063,1.000,,,,,
2_S2,09/05/2023,09:52:13.400,0.000,-0.125,1.000,,,,,
2_S2,09/05/2023,09:52:13.500,0.000,-0.063,1.000,-1567.5,-3697.5,1683.0,,
2_S2,09/05/2023,09:52:13.600,-0.063,-0.063,0.938,,,,,
2_S2,09/05/2023,09:52:13.700,0.000,-0.063,0.938,,,,,
2_S2,09/05/2023,09:52:13.800,0.000,-0.125,1.000,,,,,
2_S2,09/05/2023,09:52:13.900,0.000,-0.063,0.938,,,,,
2_S2,09/05/2023,09:52:14.000,0.000,-0.063,1.000,-1564.5,-3717.0,1668.0,,
2_S2,09/05/2023,09:52:14.100,-0.063,-0.063,1.000,,,,,
2_S2,09/05/2023,09:52:14.200,0.000,-0.063,1.000,,,,,
2_S2,09/05/2023,09:52:14.300,0.000,-0.063,1.000,,,,,
2_S2,09/05/2023,09:52:14.400,0.000,-0.125,1.000,,,,,
2_S2,09/05/2023,09:52:14.500,0.000,-0.063,1.000,-1584.0,-3702.0,1671.0,,
2_S2,09/05/2023,09:52:14.600,0.000,-0.063,1.000,,,,,
2_S2,09/05/2023,09:52:14.700,0.000,-0.063,1.000,,,,,
2_S2,09/05/2023,09:52:14.800,0.000,-0.063,0.938,,,,,
2_S2,09/05/2023,09:52:14.900,0.000,-0.063,1.000,,,,,
2_S2,09/05/2023,09:52:15.000,0.000,-0.125,1.000,-1567.5,-3714.0,1683.0,,
2_S2,09/05/2023,09:52:15.100,0.000,0.000,1.000,,,,,
2_S2,09/05/2023,09:52:15.200,-0.063,-0.063,1.000,,,,,
2_S2,09/05/2023,09:52:15.300,0.000,-0.063,1.000,,,,,
2_S2,09/05/2023,09:52:15.400,0.000,-0.063,1.000,,,,,
2_S2,09/05/2023,09:52:15.500,0.000,-0.063,1.000,-1560.0,-3697.5,1663.5,,
2_S2,09/05/2023,09:52:15.600,0.000,-0.063,1.000,,,,,
2_S2,09/05/2023,09:52:15.700,0.000,-0.063,1.063,,,,,
2_S2,09/05/2023,09:52:15.800,0.000,-0.063,0.938,,,,,
2_S2,09/05/2023,09:52:15.900,0.000,-0.063,1.000,,,,,
2_S2,09/05/2023,09:52:16.000,0.000,-0.063,1.000,-1566.0,-3715.5,1672.5,,
2_S2,09/05/2023,09:52:16.100,0.000,-0.063,1.000,,,,,
2_S2,09/05/2023,09:52:16.200,0.000,-0.063,1.000,,,,,
2_S2,09/05/2023,09:52:16.300,0.000,-0.063,1.000,,,,,
2_S2,09/05/2023,09:52:16.400,0.000,-0.063,1.000,,,,,
2_S2,09/05/2023,09:52:16.500,0.000,-0.063,1.000,-1591.5,-3709.5,1672.5,,
2_S2,09/05/2023,09:52:16.600,0.000,-0.063,1.000,,,,,
2_S2,09/05/2023,09:52:16.700,0.000,-0.063,0.982,,,,,
2_S2,09/05/2023,09:52:16.800,0.000,-0.063,0.938,,,,,
2_S2,09/05/2023,09:52:16.900,0.000,-0.063,0.938,,,,,
2_S2,09/05/2023,09:52:17.000,0.000,-0.063,1.000,-1585.5,-3702.0,1656.0,,
2_S2,09/05/2023,09:52:17.100,0.000,-0.063,1.000,,,,,
2_S2,09/05/2023,09:52:17.200,0.000,-0.063,0.938,,,,,
2_S2,09/05/2023,09:52:17.300,0.000,-0.063,1.000,,,,,
2_S2,09/05/2023,09:52:17.400,0.000,-0.063,1.000,,,,,
2_S2,09/05/2023,09:52:17.500,-0.063,-0.063,1.000,-1576.5,-3721.5,1674.0,,
2_S2,09/05/2023,09:52:17.600,0.000,-0.063,1.000,,,,,
2_S2,09/05/2023,09:52:17.700,0.000,-0.063,1.000,,,,,
2_S2,09/05/2023,09:52:17.800,0.000,-0.063,1.000,,,,,
2_S2,09/05/2023,09:52:17.900,0.000,-0.063,1.000,,,,,
2_S2,09/05/2023,09:52:18.000,0.000,-0.063,1.000,-1566.0,-3712.5,1677.0,,
2_S2,09/05/2023,09:52:18.100,0.000,-0.125,1.000,,,,,
2_S2,09/05/2023,09:52:18.200,0.000,-0.063,1.000,,,,,
2_S2,09/05/2023,09:52:18.300,0.000,-0.063,1.000,,,,,
2_S2,09/05/2023,09:52:18.400,0.000,0.000,1.000,,,,,
2_S2,09/05/2023,09:52:18.500,0.000,-0.063,0.938,-1555.5,-3714.0,1668.0,,
2_S2,09/05/2023,09:52:18.600,0.000,-0.063,1.000,,,,,
2_S2,09/05/2023,09:52:18.700,-0.063,-0.063,1.000,,,,,
2_S2,09/05/2023,09:52:18.800,0.000,-0.063,1.000,,,,,
2_S2,09/05/2023,09:52:18.900,0.000,-0.063,1.000,,,,,
2_S2,09/05/2023,09:52:19.000,0.000,-0.063,1.000,-1561.5,-3720.0,1684.5,,
2_S2,09/05/2023,09:52:19.100,0.000,-0.063,1.000,,,,,
2_S2,09/05/2023,09:52:19.200,0.000,-0.125,1.000,,,,,
2_S2,09/05/2023,09:52:19.300,0.000,-0.063,1.000,,,,,
2_S2,09/05/2023,09:52:19.400,0.000,-0.063,1.063,,,,,
2_S2,09/05/2023,09:52:19.500,-0.063,-0.125,1.000,-1573.5,-3706.5,1674.0,,
2_S2,09/05/2023,09:52:19.600,0.000,-0.063,1.000,,,,,
2_S2,09/05/2023,09:52:19.700,0.000,-0.063,0.938,,,,,
2_S2,09/05/2023,09:52:19.800,0.000,-0.063,1.000,,,,,
2_S2,09/05/2023,09:52:19.900,0.000,-0.063,1.000,,,,,
2_S2,09/05/2023,09:52:20.000,0.000,-0.063,1.000,-1566.0,-3708.0,1663.5,,
2_S2,09/05/2023,09:52:20.100,0.000,-0.063,1.000,,,,,
2_S2,09/05/2023,09:52:20.200,0.000,-0.063,1.000,,,,,
2_S2,09/05/2023,09:52:20.300,0.000,0.000,1.000,,,,,
2_S2,09/05/2023,09:52:20.400,0.000,-0.063,1.000,,,,,
2_S2,09/05/2023,09:52:20.500,0.000,-0.063,1.000,-1575.0,-3718.5,1674.0,,
2_S2,09/05/2023,09:52:20.600,0.000,-0.063,1.000,,,,,
2_S2,09/05/2023,09:52:20.700,0.000,-0.125,1.000,,,,,
2_S2,09/05/2023,09:52:20.800,0.000,-0.063,0.938,,,,,
2_S2,09/05/2023,09:52:20.900,0.000,-0.063,1.000,,,,,
2_S2,09/05/2023,09:52:21.000,0.000,-0.063,1.000,-1570.5,-3720.0,1659.0,,
2_S2,09/05/2023,09:52:21.100,0.000,-0.125,1.000,,,,,
2_S2,09/05/2023,09:52:21.200,0.000,-0.063,1.000,,,,,
2_S2,09/05/2023,09:52:21.300,0.000,-0.125,1.000,,,,,
2_S2,09/05/2023,09:52:21.400,0.000,-0.063,1.000,,,,,
2_S2,09/05/2023,09:52:21.500,0.000,-0.063,1.000,-1581.0,-3705.0,1674.0,,
2_S2,09/05/2023,09:52:21.600,0.000,-0.063,1.000,,,,,
2_S2,09/05/2023,09:52:21.700,0.000,-0.063,1.000,,,,,
2_S2,09/05/2023,09:52:21.800,0.000,-0.063,1.000,,,,,
2_S2,09/05/2023,09:52:21.900,0.000,-0.063,0.938,,,,,
2_S2,09/05/2023,09:52:22.000,0.000,-0.063,0.938,-1573.5,-3715.5,1674.0,,
2_S2,09/05/2023,09:52:22.100,0.000,-0.063,0.938,,,,,
2_S2,09/05/2023,09:52:22.200,0.000,-0.063,0.988,,,,,
2_S2,09/05/2023,09:52:22.300,0.000,-0.063,0.957,,,,,
2_S2,09/05/2023,09:52:22.400,0.000,-0.063,0.975,,,,,
2_S2,09/05/2023,09:52:22.500,0.000,-0.063,1.000,-1552.5,-3697.5,1672.5,,
2_S2,09/05/2023,09:52:22.600,0.000,-0.063,0.975,,,,,
2_S2,09/05/2023,09:52:22.700,0.000,-0.063,0.957,,,,,
2_S2,09/05/2023,09:52:22.800,0.000,-0.063,1.000,,,,,
2_S2,09/05/2023,09:52:22.900,0.000,-0.063,1.000,,,,,
2_S2,09/05/2023,09:52:23.000,0.000,-0.063,1.000,-1567.5,-3708.0,1672.5,,
2_S2,09/05/2023,09:52:23.100,0.000,-0.063,1.000,,,,,
2_S2,09/05/2023,09:52:23.200,0.000,-0.063,1.000,,,,,
2_S2,09/05/2023,09:52:23.300,0.000,-0.063,1.000,,,,,
2_S2,09/05/2023,09:52:23.400,0.000,-0.063,1.000,,,,,
2_S2,09/05/2023,09:52:23.500,0.000,-0.063,1.000,-1587.0,-3723.0,1666.5,,
2_S2,09/05/2023,09:52:23.600,0.000,-0.063,1.063,,,,,
2_S2,09/05/2023,09:52:23.700,0.000,-0.063,1.000,,,,,
2_S2,09/05/2023,09:52:23.800,0.000,-0.063,0.938,,,,,
2_S2,09/05/2023,09:52:23.900,0.000,-0.063,1.000,,,,,
2_S2,09/05/2023,09:52:24.000,0.000,-0.063,1.000,-1573.5,-3708.0,1687.5,,
2_S2,09/05/2023,09:52:24.100,0.000,-0.063,1.063,,,,,
2_S2,09/05/2023,09:52:24.200,0.000,-0.063,1.000,,,,,
2_S2,09/05/2023,09:52:24.300,0.000,-0.063,0.938,,,,,
2_S2,09/05/2023,09:52:24.400,0.000,-0.063,1.000,,,,,
2_S2,09/05/2023,09:52:24.500,0.000,-0.063,1.000,-1579.5,-3697.5,1683.0,,
2_S2,09/05/2023,09:52:24.600,0.000,-0.063,1.000,,,,,
2_S2,09/05/2023,09:52:24.700,0.000,-0.125,0.938,,,,,
2_S2,09/05/2023,09:52:24.800,0.000,-0.063,1.000,,,,,
2_S2,09/05/2023,09:52:24.900,0.000,-0.063,1.000,,,,,
2_S2,09/05/2023,09:52:25.000,0.000,-0.063,0.938,-1561.5,-3708.0,1672.5,,
2_S2,09/05/2023,09:52:25.100,0.000,-0.063,0.938,,,,,
2_S2,09/05/2023,09:52:25.200,0.000,0.000,1.000,,,,,
2_S2,09/05/2023,09:52:25.300,0.000,-0.063,1.000,,,,,
2_S2,09/05/2023,09:52:25.400,0.000,-0.063,1.000,,,,,
2_S2,09/05/2023,09:52:25.500,0.000,-0.063,1.000,-1567.5,-3691.5,1674.0,,
2_S2,09/05/2023,09:52:25.600,0.000,0.000,1.000,,,,,
2_S2,09/05/2023,09:52:25.700,0.000,-0.063,1.000,,,,,
2_S2,09/05/2023,09:52:25.800,0.000,-0.063,1.000,,,,,
2_S2,09/05/2023,09:52:25.900,0.000,-0.063,1.000,,,,,
2_S2,09/05/2023,09:52:26.000,-0.063,-0.063,1.063,-1572.0,-3706.5,1687.5,,
2_S2,09/05/2023,09:52:26.100,0.000,-0.063,1.000,,,,,
2_S2,09/05/2023,09:52:26.200,-0.063,-0.063,1.000,,,,,
2_S2,09/05/2023,09:52:26.300,0.000,-0.063,1.000,,,,,
2_S2,09/05/2023,09:52:26.400,0.000,-0.063,1.000,,,,,
2_S2,09/05/2023,09:52:26.500,0.000,-0.063,1.000,-1581.0,-3718.5,1672.5,,
2_S2,09/05/2023,09:52:26.600,0.000,-0.063,1.000,,,,,
2_S2,09/05/2023,09:52:26.700,0.000,-0.063,0.938,,,,,
2_S2,09/05/2023,09:52:26.800,0.000,-0.063,1.000,,,,,
2_S2,09/05/2023,09:52:26.900,0.000,-0.125,1.000,,,,,
2_S2,09/05/2023,09:52:27.000,0.000,-0.063,1.000,-1572.0,-3702.0,1666.5,,
2_S2,09/05/2023,09:52:27.100,0.000,-0.119,1.000,,,,,
2_S2,09/05/2023,09:52:27.200,0.000,-0.075,1.000,,,,,
2_S2,09/05/2023,09:52:27.300,0.000,-0.063,1.000,,,,,
2_S2,09/05/2023,09:52:27.400,0.000,-0.063,1.000,,,,,
2_S2,09/05/2023,09:52:27.500,0.000,-0.063,1.000,-1560.0,-3712.5,1659.0,,
2_S2,09/05/2023,09:52:27.600,0.000,-0.063,1.000,,,,,
2_S2,09/05/2023,09:52:27.700,0.000,-0.063,1.000,,,,,
2_S2,09/05/2023,09:52:27.800,-0.013,-0.063,1.000,,,,,
2_S2,09/05/2023,09:52:27.900,-0.063,-0.063,1.000,,,,,
2_S2,09/05/2023,09:52:28.000,0.000,-0.063,1.000,-1572.0,-3699.0,1674.0,,
2_S2,09/05/2023,09:52:28.100,0.000,-0.063,1.000,,,,,
2_S2,09/05/2023,09:52:28.200,0.000,-0.125,1.000,,,,,
2_S2,09/05/2023,09:52:28.300,0.000,-0.063,1.000,,,,,
2_S2,09/05/2023,09:52:28.400,-0.063,-0.063,1.000,,,,,
2_S2,09/05/2023,09:52:28.500,-0.063,-0.063,1.000,-1569.0,-3700.5,1680.0,,
2_S2,09/05/2023,09:52:28.600,0.000,-0.063,1.000,,,,,
2_S2,09/05/2023,09:52:28.700,-0.063,-0.063,1.000,,,,,
2_S2,09/05/2023,09:52:28.800,0.000,-0.063,1.000,,,,,
2_S2,09/05/2023,09:52:28.900,-0.063,-0.063,1.000,,,,,
2_S2,09/05/2023,09:52:29.000,0.000,-0.063,0.938,-1573.5,-3717.0,1689.0,,
2_S2,09/05/2023,09:52:29.100,0.000,-0.063,1.000,,,,,
2_S2,09/05/2023,09:52:29.200,0.000,-0.063,1.000,,,,,
2_S2,09/05/2023,09:52:29.300,0.000,-0.063,1.000,,,,,
2_S2,09/05/2023,09:52:29.400,-0.063,-0.063,1.063,,,,,
2_S2,09/05/2023,09:52:29.500,0.000,-0.063,1.000,-1579.5,-3691.5,1674.0,,
2_S2,09/05/2023,09:52:29.600,0.000,-0.063,1.000,,,,,
2_S2,09/05/2023,09:52:29.700,0.000,-0.063,1.000,,,,,
2_S2,09/05/2023,09:52:29.800,0.000,-0.063,0.938,,,,,
2_S2,09/05/2023,09:52:29.900,0.000,-0.063,1.000,,,,,
2_S2,09/05/2023,09:52:30.000,0.000,-0.063,1.000,-1582.5,-3729.0,1668.0,,
2_S2,09/05/2023,09:52:30.100,0.000,-0.063,1.000,,,,,
2_S2,09/05/2023,09:52:30.200,0.000,-0.063,1.000,,,,,
2_S2,09/05/2023,09:52:30.300,0.000,-0.063,1.000,,,,,
2_S2,09/05/2023,09:52:30.400,0.000,-0.063,1.000,,,,,
2_S2,09/05/2023,09:52:30.500,0.000,-0.063,0.938,-1585.5,-3691.5,1660.5,,
2_S2,09/05/2023,09:52:30.600,0.000,-0.063,1.000,,,,,
2_S2,09/05/2023,09:52:30.700,0.000,-0.063,1.000,,,,,
2_S2,09/05/2023,09:52:30.800,0.000,-0.063,1.000,,,,,
2_S2,09/05/2023,09:52:30.900,0.000,-0.063,1.000,,,,,
2_S2,09/05/2023,09:52:31.000,0.000,-0.063,1.000,-1576.5,-3714.0,1675.5,,
2_S2,09/05/2023,09:52:31.100,0.000,-0.063,1.000,,,,,
2_S2,09/05/2023,09:52:31.200,0.000,-0.063,1.000,,,,,
2_S2,09/05/2023,09:52:31.300,0.000,-0.063,1.000,,,,,
2_S2,09/05/2023,09:52:31.400,0.000,-0.063,1.000,,,,,
2_S2,09/05/2023,09:52:31.500,0.000,-0.063,0.938,-1567.5,-3715.5,1683.0,,
2_S2,09/05/2023,09:52:31.600,0.000,-0.063,1.000,,,,,
2_S2,09/05/2023,09:52:31.700,0.000,-0.063,1.000,,,,,
2_S2,09/05/2023,09:52:31.800,0.000,-0.063,1.000,,,,,
2_S2,09/05/2023,09:52:31.900,0.000,-0.063,0.938,,,,,
2_S2,09/05/2023,09:52:32.000,0.000,-0.063,1.000,-1576.5,-3699.0,1692.0,,
2_S2,09/05/2023,09:52:32.100,-0.056,-0.119,1.000,,,,,
2_S2,09/05/2023,09:52:32.200,-0.013,-0.075,1.000,,,,,
2_S2,09/05/2023,09:52:32.300,0.000,-0.063,1.000,,,,,
2_S2,09/05/2023,09:52:32.400,0.000,-0.063,1.000,,,,,
2_S2,09/05/2023,09:52:32.500,-0.031,-0.063,1.000,-1560.0,-3717.0,1683.0,,
2_S2,09/05/2023,09:52:32.600,-0.038,-0.063,0.975,,,,,
2_S2,09/05/2023,09:52:32.700,-0.019,-0.063,0.957,,,,,
2_S2,09/05/2023,09:52:32.800,-0.050,-0.063,1.000,,,,,
2_S2,09/05/2023,09:52:32.900,0.000,-0.063,1.000,,,,,
2_S2,09/05/2023,09:52:33.000,0.000,-0.063,1.000,-1570.5,-3727.5,1674.0,,
2_S2,09/05/2023,09:52:33.100,0.000,-0.063,0.938,,,,,
2_S2,09/05/2023,09:52:33.200,0.000,-0.063,1.000,,,,,
2_S2,09/05/2023,09:52:33.300,0.000,-0.063,0.938,,,,,
2_S2,09/05/2023,09:52:33.400,0.000,-0.063,1.000,,,,,
2_S2,09/05/2023,09:52:33.500,0.000,-0.063,1.000,-1569.0,-3705.0,1675.5,,
2_S2,09/05/2023,09:52:33.600,0.000,-0.063,1.000,,,,,
2_S2,09/05/2023,09:52:33.700,0.000,-0.063,1.000,,,,,
2_S2,09/05/2023,09:52:33.800,0.000,-0.063,1.000,,,,,
2_S2,09/05/2023,09:52:33.900,0.000,-0.063,1.000,,,,,
2_S2,09/05/2023,09:52:34.000,0.000,-0.063,1.000,-1578.0,-3703.5,1689.0,,
2_S2,09/05/2023,09:52:34.100,0.000,-0.063,1.063,,,,,
2_S2,09/05/2023,09:52:34.200,0.000,-0.063,1.000,,,,,
2_S2,09/05/2023,09:52:34.300,0.000,-0.063,1.000,,,,,
2_S2,09/05/2023,09:52:34.400,0.000,-0.063,0.938,,,,,
2_S2,09/05/2023,09:52:34.500,0.000,-0.063,1.000,-1572.0,-3714.0,1666.5,,
2_S2,09/05/2023,09:52:34.600,0.000,-0.063,0.938,,,,,
2_S2,09/05/2023,09:52:34.700,0.000,-0.063,1.000,,,,,
2_S2,09/05/2023,09:52:34.800,0.000,-0.063,1.000,,,,,
2_S2,09/05/2023,09:52:34.900,0.000,-0.063,0.938,,,,,
2_S2,09/05/2023,09:52:35.000,0.000,-0.063,1.000,-1575.0,-3723.0,1678.5,,
2_S2,09/05/2023,09:52:35.100,0.000,-0.063,1.000,,,,,
2_S2,09/05/2023,09:52:35.200,0.000,-0.063,1.000,,,,,
2_S2,09/05/2023,09:52:35.300,0.000,-0.063,1.000,,,,,
2_S2,09/05/2023,09:52:35.400,-0.063,-0.063,1.000,,,,,
2_S2,09/05/2023,09:52:35.500,0.000,-0.125,1.000,-1579.5,-3709.5,1684.5,,
2_S2,09/05/2023,09:52:35.600,0.000,-0.063,1.000,,,,,
2_S2,09/05/2023,09:52:35.700,0.000,-0.063,1.000,,,,,
2_S2,09/05/2023,09:52:35.800,0.000,-0.063,1.000,,,,,
2_S2,09/05/2023,09:52:35.900,0.000,-0.063,1.000,,,,,
2_S2,09/05/2023,09:52:36.000,0.000,-0.063,0.938,-1566.0,-3705.0,1677.0,,
2_S2,09/05/2023,09:52:36.100,-0.063,-0.063,1.000,,,,,
2_S2,09/05/2023,09:52:36.200,-0.063,-0.063,1.063,,,,,
2_S2,09/05/2023,09:52:36.300,0.000,-0.125,1.000,,,,,
2_S2,09/05/2023,09:52:36.400,0.000,-0.063,0.938,,,,,
2_S2,09/05/2023,09:52:36.500,0.000,-0.063,1.000,-1558.5,-3712.5,1684.5,,
2_S2,09/05/2023,09:52:36.600,0.000,-0.063,1.000,,,,,
2_S2,09/05/2023,09:52:36.700,0.000,-0.063,1.000,,,,,
2_S2,09/05/2023,09:52:36.800,0.000,-0.063,0.938,,,,,
2_S2,09/05/2023,09:52:36.900,0.000,-0.063,1.000,,,,,
2_S2,09/05/2023,09:52:37.000,0.000,-0.063,0.938,-1590.0,-3708.0,1684.5,,
2_S2,09/05/2023,09:52:37.100,0.000,-0.125,1.000,,,,,
2_S2,09/05/2023,09:52:37.200,0.000,-0.063,1.000,,,,,
2_S2,09/05/2023,09:52:37.300,0.000,-0.063,1.063,,,,,
2_S2,09/05/2023,09:52:37.400,0.000,0.000,1.000,,,,,
2_S2,09/05/2023,09:52:37.500,0.000,-0.063,1.000,-1573.5,-3711.0,1687.5,,
2_S2,09/05/2023,09:52:37.600,0.000,-0.125,1.000,,,,,
2_S2,09/05/2023,09:52:37.700,0.000,-0.063,1.000,,,,,
2_S2,09/05/2023,09:52:37.800,0.000,-0.063,1.000,,,,,
2_S2,09/05/2023,09:52:37.900,0.000,-0.063,1.000,,,,,
2_S2,09/05/2023,09:52:38.000,0.000,-0.063,1.000,-1579.5,-3717.0,1681.5,,
2_S2,09/05/2023,09:52:38.100,0.000,-0.063,1.000,,,,,
2_S2,09/05/2023,09:52:38.200,0.000,-0.063,1.000,,,,,
2_S2,09/05/2023,09:52:38.300,-0.044,-0.063,1.000,,,,,
2_S2,09/05/2023,09:52:38.400,-0.025,-0.063,1.000,,,,,
2_S2,09/05/2023,09:52:38.500,0.000,-0.063,1.000,-1564.5,-3717.0,1674.0,,
2_S2,09/05/2023,09:52:38.600,0.000,-0.063,1.000,,,,,
2_S2,09/05/2023,09:52:38.700,0.000,-0.063,1.000,,,,,
2_S2,09/05/2023,09:52:38.800,0.000,-0.063,1.000,,,,,
2_S2,09/05/2023,09:52:38.900,0.000,-0.063,1.000,,,,,
2_S2,09/05/2023,09:52:39.000,0.000,-0.063,1.000,-1555.5,-3711.0,1681.5,,
2_S2,09/05/2023,09:52:39.100,-0.063,-0.063,0.938,,,,,
2_S2,09/05/2023,09:52:39.200,0.000,-0.063,1.000,,,,,
2_S2,09/05/2023,09:52:39.300,0.000,-0.063,1.000,,,,,
2_S2,09/05/2023,09:52:39.400,0.000,-0.063,1.000,,,,,
2_S2,09/05/2023,09:52:39.500,0.000,-0.063,1.000,-1569.0,-3712.5,1684.5,,
2_S2,09/05/2023,09:52:39.600,0.000,-0.063,1.000,,,,,
2_S2,09/05/2023,09:52:39.700,0.000,-0.063,0.938,,,,,
2_S2,09/05/2023,09:52:39.800,0.000,-0.125,1.000,,,,,
2_S2,09/05/2023,09:52:39.900,0.000,-0.063,1.000,,,,,
2_S2,09/05/2023,09:52:40.000,0.000,-0.063,1.000,-1578.0,-3708.0,1684.5,,
2_S2,09/05/2023,09:52:40.100,0.000,-0.063,0.938,,,,,
2_S2,09/05/2023,09:52:40.200,0.000,-0.063,1.000,,,,,
2_S2,09/05/2023,09:52:40.300,0.000,-0.125,1.000,,,,,
2_S2,09/05/2023,09:52:40.400,0.000,-0.063,1.000,,,,,
2_S2,09/05/2023,09:52:40.500,-0.063,-0.063,1.000,-1570.5,-3729.0,1660.5,,
2_S2,09/05/2023,09:52:40.600,0.000,-0.063,1.000,,,,,
2_S2,09/05/2023,09:52:40.700,0.000,-0.063,1.000,,,,,
2_S2,09/05/2023,09:52:40.800,0.000,-0.063,0.938,,,,,
2_S2,09/05/2023,09:52:40.900,0.000,-0.063,1.000,,,,,
2_S2,09/05/2023,09:52:41.000,0.000,-0.063,1.000,-1584.0,-3721.5,1674.0,,
2_S2,09/05/2023,09:52:41.100,0.000,-0.063,1.000,,,,,
2_S2,09/05/2023,09:52:41.200,0.000,-0.063,1.000,,,,,
2_S2,09/05/2023,09:52:41.300,0.000,-0.063,1.000,,,,,
2_S2,09/05/2023,09:52:41.400,0.000,-0.063,1.000,,,,,
2_S2,09/05/2023,09:52:41.500,-0.063,-0.063,1.000,-1566.0,-3718.5,1681.5,,
2_S2,09/05/2023,09:52:41.600,0.000,-0.063,1.000,,,,,
2_S2,09/05/2023,09:52:41.700,0.000,-0.063,1.000,,,,,
2_S2,09/05/2023,09:52:41.800,0.000,-0.063,1.000,,,,,
2_S2,09/05/2023,09:52:41.900,0.000,-0.063,0.938,,,,,
2_S2,09/05/2023,09:52:42.000,0.000,-0.063,1.000,-1570.5,-3714.0,1660.5,,
2_S2,09/05/2023,09:52:42.100,0.000,-0.063,1.000,,,,,
2_S2,09/05/2023,09:52:42.200,0.000,-0.063,1.000,,,,,
2_S2,09/05/2023,09:52:42.300,0.000,-0.063,1.063,,,,,
2_S2,09/05/2023,09:52:42.400,0.000,-0.063,1.000,,,,,
2_S2,09/05/2023,09:52:42.500,0.000,-0.063,0.938,-1579.5,-3718.5,1668.0,,
2_S2,09/05/2023,09:52:42.600,0.000,0.000,1.000,,,,,
2_S2,09/05/2023,09:52:42.700,0.000,-0.063,1.000,,,,,
2_S2,09/05/2023,09:52:42.800,0.000,-0.063,1.000,,,,,
2_S2,09/05/2023,09:52:42.900,0.000,-0.063,1.000,,,,,
2_S2,09/05/2023,09:52:43.000,0.000,-0.063,1.000,-1560.0,-3724.5,1662.0,,
2_S2,09/05/2023,09:52:43.100,0.000,-0.063,1.000,,,,,
2_S2,09/05/2023,09:52:43.200,0.000,-0.063,1.000,,,,,
2_S2,09/05/2023,09:52:43.300,0.000,-0.063,1.000,,,,,
2_S2,09/05/2023,09:52:43.400,-0.038,-0.063,1.000,,,,,
2_S2,09/05/2023,09:52:43.500,-0.031,-0.094,1.000,-1561.5,-3720.0,1669.5,,
2_S2,09/05/2023,09:52:43.600,0.000,-0.100,1.000,,,,,
2_S2,09/05/2023,09:52:43.700,0.000,-0.063,1.000,,,,,
2_S2,09/05/2023,09:52:43.800,0.000,-0.063,0.988,,,,,
2_S2,09/05/2023,09:52:43.900,0.000,-0.063,0.938,,,,,
2_S2,09/05/2023,09:52:44.000,0.000,-0.063,1.000,-1567.5,-3711.0,1662.0,,
2_S2,09/05/2023,09:52:44.100,0.000,-0.063,1.063,,,,,
2_S2,09/05/2023,09:52:44.200,0.000,-0.063,1.000,,,,,
2_S2,09/05/2023,09:52:44.300,0.000,-0.063,1.000,,,,,
2_S2,09/05/2023,09:52:44.400,0.000,-0.063,1.000,,,,,
2_S2,09/05/2023,09:52:44.500,0.000,-0.063,1.000,-1585.5,-3708.0,1665.0,,
2_S2,09/05/2023,09:52:44.600,0.000,-0.063,1.000,,,,,
2_S2,09/05/2023,09:52:44.700,0.000,-0.063,1.000,,,,,
2_S2,09/05/2023,09:52:44.800,0.000,-0.063,0.938,,,,,
2_S2,09/05/2023,09:52:44.900,0.000,-0.063,1.000,,,,,
2_S2,09/05/2023,09:52:45.000,0.000,-0.125,1.000,-1573.5,-3711.0,1663.5,,
2_S2,09/05/2023,09:52:45.100,0.000,-0.063,1.063,,,,,
2_S2,09/05/2023,09:52:45.200,0.000,-0.063,1.000,,,,,
2_S2,09/05/2023,09:52:45.300,0.000,-0.063,1.000,,,,,
2_S2,09/05/2023,09:52:45.400,0.000,-0.063,1.000,,,,,
2_S2,09/05/2023,09:52:45.500,0.000,-0.063,0.938,-1582.5,-3702.0,1674.0,,
2_S2,09/05/2023,09:52:45.600,0.000,-0.063,0.938,,,,,
2_S2,09/05/2023,09:52:45.700,0.000,-0.063,1.000,,,,,
2_S2,09/05/2023,09:52:45.800,0.000,-0.063,1.000,,,,,
2_S2,09/05/2023,09:52:45.900,0.000,-0.063,1.000,,,,,
2_S2,09/05/2023,09:52:46.000,0.000,-0.063,1.000,-1587.0,-3714.0,1672.5,,
2_S2,09/05/2023,09:52:46.100,0.000,-0.063,1.063,,,,,
2_S2,09/05/2023,09:52:46.200,-0.063,-0.063,1.000,,,,,
2_S2,09/05/2023,09:52:46.300,0.000,-0.063,1.000,,,,,
2_S2,09/05/2023,09:52:46.400,0.000,-0.063,1.063,,,,,
2_S2,09/05/2023,09:52:46.500,0.000,-0.063,1.000,-1582.5,-3697.5,1677.0,,
2_S2,09/05/2023,09:52:46.600,0.000,-0.125,1.000,,,,,
2_S2,09/05/2023,09:52:46.700,0.000,-0.063,1.000,,,,,
2_S2,09/05/2023,09:52:46.800,0.000,-0.063,1.000,,,,,
2_S2,09/05/2023,09:52:46.900,0.000,-0.063,1.000,,,,,
2_S2,09/05/2023,09:52:47.000,0.000,-0.063,1.000,-1587.0,-3705.0,1690.5,,
2_S2,09/05/2023,09:52:47.100,-0.063,-0.063,1.000,,,,,
2_S2,09/05/2023,09:52:47.200,0.000,-0.063,1.000,,,,,
2_S2,09/05/2023,09:52:47.300,0.000,-0.063,1.000,,,,,
2_S2,09/05/2023,09:52:47.400,0.000,-0.063,1.000,,,,,
2_S2,09/05/2023,09:52:47.500,0.000,-0.063,1.000,-1575.0,-3717.0,1684.5,,
2_S2,09/05/2023,09:52:47.600,0.000,-0.063,1.000,,,,,
2_S2,09/05/2023,09:52:47.700,0.000,-0.063,0.938,,,,,
2_S2,09/05/2023,09:52:47.800,0.000,-0.063,1.000,,,,,
2_S2,09/05/2023,09:52:47.900,0.000,-0.063,0.938,,,,,
2_S2,09/05/2023,09:52:48.000,0.000,-0.063,1.000,-1587.0,-3717.0,1687.5,,
2_S2,09/05/2023,09:52:48.100,0.000,-0.125,1.000,,,,,
2_S2,09/05/2023,09:52:48.200,0.000,-0.063,1.063,,,,,
2_S2,09/05/2023,09:52:48.300,0.000,-0.125,1.000,,,,,
2_S2,09/05/2023,09:52:48.400,0.000,-0.125,1.000,,,,,
2_S2,09/05/2023,09:52:48.500,0.000,-0.063,1.000,-1575.0,-3721.5,1681.5,,
2_S2,09/05/2023,09:52:48.600,0.000,-0.063,1.000,,,,,
2_S2,09/05/2023,09:52:48.700,0.000,-0.063,1.000,,,,,
2_S2,09/05/2023,09:52:48.800,0.000,-0.063,1.000,,,,,
2_S2,09/05/2023,09:52:48.900,0.000,-0.125,1.000,,,,,
2_S2,09/05/2023,09:52:49.000,0.000,-0.063,1.000,-1582.5,-3690.0,1678.5,,
2_S2,09/05/2023,09:52:49.100,0.000,-0.063,1.000,,,,,
2_S2,09/05/2023,09:52:49.200,0.000,-0.063,0.950,,,,,
2_S2,09/05/2023,09:52:49.300,0.000,-0.106,0.982,,,,,
2_S2,09/05/2023,09:52:49.400,0.000,-0.088,0.963,,,,,
2_S2,09/05/2023,09:52:49.500,0.000,-0.063,0.969,-1575.0,-3709.5,1696.5,,
2_S2,09/05/2023,09:52:49.600,0.000,-0.063,1.000,,,,,
2_S2,09/05/2023,09:52:49.700,0.000,-0.063,1.000,,,,,
2_S2,09/05/2023,09:52:49.800,0.000,-0.063,0.988,,,,,
2_S2,09/05/2023,09:52:49.900,0.000,-0.063,0.938,,,,,
2_S2,09/05/2023,09:52:50.000,0.000,-0.063,1.000,-1573.5,-3715.5,1680.0,,
2_S2,09/05/2023,09:52:50.100,0.000,-0.063,1.000,,,,,
2_S2,09/05/2023,09:52:50.200,0.000,0.000,1.000,,,,,
2_S2,09/05/2023,09:52:50.300,-0.063,-0.063,1.000,,,,,
2_S2,09/05/2023,09:52:50.400,0.000,-0.125,1.000,,,,,
2_S2,09/05/2023,09:52:50.500,0.000,-0.125,1.000,-1558.5,-3723.0,1677.0,,
2_S2,09/05/2023,09:52:50.600,-0.063,-0.063,1.000,,,,,
2_S2,09/05/2023,09:52:50.700,0.000,-0.063,1.000,,,,,
2_S2,09/05/2023,09:52:50.800,0.000,-0.063,1.000,,,,,
2_S2,09/05/2023,09:52:50.900,-0.063,-0.063,1.063,,,,,
2_S2,09/05/2023,09:52:51.000,0.000,-0.063,1.000,-1573.5,-3696.0,1695.0,,
2_S2,09/05/2023,09:52:51.100,0.000,0.000,1.000,,,,,
2_S2,09/05/2023,09:52:51.200,0.000,-0.063,1.000,,,,,
2_S2,09/05/2023,09:52:51.300,0.000,-0.063,1.000,,,,,
2_S2,09/05/2023,09:52:51.400,0.000,-0.063,1.000,,,,,
2_S2,09/05/2023,09:52:51.500,0.000,-0.063,1.000,-1578.0,-3706.5,1675.5,,
2_S2,09/05/2023,09:52:51.600,-0.063,-0.063,1.000,,,,,
2_S2,09/05/2023,09:52:51.700,-0.063,-0.063,1.063,,,,,
2_S2,09/05/2023,09:52:51.800,0.000,-0.063,1.000,,,,,
2_S2,09/05/2023,09:52:51.900,0.000,-0.063,1.000,,,,,
2_S2,09/05/2023,09:52:52.000,0.000,-0.063,1.000,-1572.0,-3723.0,1678.5,,
2_S2,09/05/2023,09:52:52.100,0.000,-0.063,1.000,,,,,
2_S2,09/05/2023,09:52:52.200,-0.063,-0.063,1.000,,,,,
2_S2,09/05/2023,09:52:52.300,0.000,-0.063,1.000,,,,,
2_S2,09/05/2023,09:52:52.400,-0.063,-0.063,1.000,,,,,
2_S2,09/05/2023,09:52:52.500,0.000,-0.063,1.000,-1560.0,-3715.5,1677.0,,
2_S2,09/05/2023,09:52:52.600,0.000,-0.063,1.000,,,,,
2_S2,09/05/2023,09:52:52.700,0.000,-0.063,1.000,,,,,
2_S2,09/05/2023,09:52:52.800,-0.063,-0.063,1.000,,,,,
2_S2,09/05/2023,09:52:52.900,0.000,-0.063,1.000,,,,,
2_S2,09/05/2023,09:52:53.000,0.000,-0.063,1.000,-1573.5,-3717.0,1698.0,,
2_S2,09/05/2023,09:52:53.100,0.000,-0.063,1.000,,,,,
2_S2,09/05/2023,09:52:53.200,0.000,-0.063,1.000,,,,,
2_S2,09/05/2023,09:52:53.300,-0.063,-0.063,0.938,,,,,
2_S2,09/05/2023,09:52:53.400,0.000,-0.063,1.000,,,,,
2_S2,09/05/2023,09:52:53.500,0.000,-0.063,1.000,-1579.5,-3714.0,1675.5,,
2_S2,09/05/2023,09:52:53.600,0.000,-0.063,1.000,,,,,
2_S2,09/05/2023,09:52:53.700,0.000,-0.125,1.000,,,,,
2_S2,09/05/2023,09:52:53.800,0.000,-0.063,1.000,,,,,
2_S2,09/05/2023,09:52:53.900,0.000,-0.063,1.000,,,,,
2_S2,09/05/2023,09:52:54.000,0.000,-0.063,1.000,-1585.5,-3709.5,1677.0,,
2_S2,09/05/2023,09:52:54.100,-0.056,-0.063,1.000,,,,,
2_S2,09/05/2023,09:52:54.200,-0.013,-0.063,1.000,,,,,
2_S2,09/05/2023,09:52:54.300,-0.044,-0.106,1.044,,,,,
2_S2,09/05/2023,09:52:54.400,-0.025,-0.088,1.025,,,,,
2_S2,09/05/2023,09:52:54.500,0.000,-0.063,1.000,-1570.5,-3708.0,1690.5,,
2_S2,09/05/2023,09:52:54.600,0.000,-0.063,1.000,,,,,
2_S2,09/05/2023,09:52:54.700,0.000,-0.063,1.000,,,,,
2_S2,09/05/2023,09:52:54.800,-0.013,-0.063,1.000,,,,,
2_S2,09/05/2023,09:52:54.900,-0.063,-0.063,1.000,,,,,
2_S2,09/05/2023,09:52:55.000,0.000,-0.063,1.000,-1579.5,-3711.0,1672.5,,
2_S2,09/05/2023,09:52:55.100,0.000,-0.063,1.000,,,,,
2_S2,09/05/2023,09:52:55.200,0.000,-0.063,1.000,,,,,
2_S2,09/05/2023,09:52:55.300,0.000,-0.063,1.000,,,,,
2_S2,09/05/2023,09:52:55.400,-0.063,-0.063,1.000,,,,,
2_S2,09/05/2023,09:52:55.500,0.000,-0.063,1.000,-1578.0,-3708.0,1675.5,,
2_S2,09/05/2023,09:52:55.600,0.000,-0.063,1.000,,,,,
2_S2,09/05/2023,09:52:55.700,0.000,-0.063,1.000,,,,,
2_S2,09/05/2023,09:52:55.800,0.000,-0.063,1.000,,,,,
2_S2,09/05/2023,09:52:55.900,-0.063,-0.063,1.000,,,,,
2_S2,09/05/2023,09:52:56.000,0.000,-0.063,1.000,-1576.5,-3717.0,1686.0,,
2_S2,09/05/2023,09:52:56.100,0.000,-0.063,0.938,,,,,
2_S2,09/05/2023,09:52:56.200,0.000,-0.063,1.000,,,,,
2_S2,09/05/2023,09:52:56.300,0.000,-0.063,1.000,,,,,
2_S2,09/05/2023,09:52:56.400,0.000,-0.063,1.000,,,,,
2_S2,09/05/2023,09:52:56.500,0.000,0.000,1.000,-1578.0,-3702.0,1678.5,,
2_S2,09/05/2023,09:52:56.600,0.000,-0.063,1.000,,,,,
2_S2,09/05/2023,09:52:56.700,0.000,-0.063,1.000,,,,,
2_S2,09/05/2023,09:52:56.800,0.000,-0.063,1.000,,,,,
2_S2,09/05/2023,09:52:56.900,0.000,-0.063,1.000,,,,,
2_S2,09/05/2023,09:52:57.000,0.000,-0.063,1.000,-1554.0,-3694.5,1678.5,,
2_S2,09/05/2023,09:52:57.100,0.000,-0.063,1.000,,,,,
2_S2,09/05/2023,09:52:57.200,0.000,-0.063,0.938,,,,,
2_S2,09/05/2023,09:52:57.300,0.000,-0.125,1.000,,,,,
2_S2,09/05/2023,09:52:57.400,-0.063,-0.063,1.000,,,,,
2_S2,09/05/2023,09:52:57.500,0.000,-0.063,1.063,-1578.0,-3714.0,1677.0,,
2_S2,09/05/2023,09:52:57.600,0.000,0.000,1.000,,,,,
2_S2,09/05/2023,09:52:57.700,-0.063,-0.063,1.000,,,,,
2_S2,09/05/2023,09:52:57.800,0.000,-0.063,1.000,,,,,
2_S2,09/05/2023,09:52:57.900,0.000,-0.063,1.000,,,,,
2_S2,09/05/2023,09:52:58.000,0.000,-0.063,0.938,-1569.0,-3712.5,1690.5,,
2_S2,09/05/2023,09:52:58.100,0.000,-0.063,1.000,,,,,
2_S2,09/05/2023,09:52:58.200,0.000,-0.063,1.000,,,,,
2_S2,09/05/2023,09:52:58.300,0.000,-0.063,1.000,,,,,
2_S2,09/05/2023,09:52:58.400,0.000,-0.063,1.000,,,,,
2_S2,09/05/2023,09:52:58.500,-0.063,-0.063,1.000,-1581.0,-3702.0,1695.0,,
2_S2,09/05/2023,09:52:58.600,0.000,-0.125,1.000,,,,,
2_S2,09/05/2023,09:52:58.700,-0.063,-0.063,1.000,,,,,
2_S2,09/05/2023,09:52:58.800,0.000,-0.063,1.063,,,,,
2_S2,09/05/2023,09:52:58.900,0.000,-0.125,1.000,,,,,
2_S2,09/05/2023,09:52:59.000,-0.063,-0.063,1.000,-1573.5,-3715.5,1678.5,,
2_S2,09/05/2023,09:52:59.100,-0.006,-0.063,1.000,,,,,
2_S2,09/05/2023,09:52:59.200,0.000,-0.063,0.950,,,,,
2_S2,09/05/2023,09:52:59.300,0.000,-0.063,0.982,,,,,
2_S2,09/05/2023,09:52:59.400,0.000,-0.063,1.000,,,,,
2_S2,09/05/2023,09:52:59.500,0.000,-0.063,1.000,-1597.5,-3702.0,1690.5,,
2_S2,09/05/2023,09:52:59.600,-0.025,-0.063,1.000,,,,,
2_S2,09/05/2023,09:52:59.700,-0.044,-0.063,1.000,,,,,
2_S2,09/05/2023,09:52:59.800,0.000,-0.063,1.000,,,,,
2_S2,09/05/2023,09:52:59.900,0.000,-0.063,1.000,,,,,
2_S2,09/05/2023,09:53:00.000,0.000,-0.063,0.938,-1566.0,-3714.0,1680.0,,
2_S2,09/05/2023,09:53:00.100,0.000,-0.063,1.000,,,,,
2_S2,09/05/2023,09:53:00.200,0.000,-0.063,1.000,,,,,
2_S2,09/05/2023,09:53:00.300,0.000,-0.063,1.000,,,,,
2_S2,09/05/2023,09:53:00.400,0.000,-0.063,1.000,,,,,
2_S2,09/05/2023,09:53:00.500,0.000,-0.063,0.938,-1579.5,-3703.5,1693.5,,
2_S2,09/05/2023,09:53:00.600,0.000,-0.063,1.000,,,,,
2_S2,09/05/2023,09:53:00.700,0.000,-0.063,1.000,,,,,
2_S2,09/05/2023,09:53:00.800,0.000,-0.063,1.000,,,,,
2_S2,09/05/2023,09:53:00.900,0.000,-0.063,1.000,,,,,
2_S2,09/05/2023,09:53:01.000,-0.063,-0.063,1.000,-1374.0,-3732.0,1720.5,,
2_S2,09/05/2023,09:53:01.100,0.000,-0.063,1.000,,,,,
2_S2,09/05/2023,09:53:01.200,0.000,-0.063,0.938,,,,,
2_S2,09/05/2023,09:53:01.300,0.000,-0.063,1.063,,,,,
2_S2,09/05/2023,09:53:01.400,0.000,-0.125,0.938,,,,,
2_S2,09/05/2023,09:53:01.500,-0.063,0.000,1.063,-984.0,-3760.5,1647.0,,
2_S2,09/05/2023,09:53:01.600,-0.063,-0.125,0.938,,,,,
2_S2,09/05/2023,09:53:01.700,-0.125,-0.125,1.063,,,,,
2_S2,09/05/2023,09:53:01.800,-0.063,-0.063,1.000,,,,,
2_S2,09/05/2023,09:53:01.900,0.000,-0.063,1.000,,,,,
2_S2,09/05/2023,09:53:02.000,0.000,-0.125,0.938,-1024.5,-3729.0,1660.5,,
2_S2,09/05/2023,09:53:02.100,-0.125,-0.125,1.000,,,,,
2_S2,09/05/2023,09:53:02.200,-0.063,-0.063,1.000,,,,,
2_S2,09/05/2023,09:53:02.300,-0.063,0.000,0.938,,,,,
2_S2,09/05/2023,09:53:02.400,-0.063,0.000,1.000,,,,,
2_S2,09/05/2023,09:53:02.500,-0.063,-0.125,1.000,-303.0,-3790.5,1465.5,,
2_S2,09/05/2023,09:53:02.600,0.000,0.000,1.063,,,,,
2_S2,09/05/2023,09:53:02.700,-0.125,-0.063,1.000,,,,,
2_S2,09/05/2023,09:53:02.800,-0.125,0.000,1.000,,,,,
2_S2,09/05/2023,09:53:02.900,-0.063,0.000,1.000,,,,,
2_S2,09/05/2023,09:53:03.000,-0.063,0.000,1.000,420.0,-4609.5,1668.0,,
2_S2,09/05/2023,09:53:03.100,-0.063,-0.063,1.000,,,,,
2_S2,09/05/2023,09:53:03.200,-0.063,-0.063,1.063,,,,,
2_S2,09/05/2023,09:53:03.300,-0.063,0.000,1.000,,,,,
2_S2,09/05/2023,09:53:03.400,-0.063,-0.063,1.000,,,,,
2_S2,09/05/2023,09:53:03.500,-0.063,0.000,1.063,1243.5,-11611.5,7630.5,,
2_S2,09/05/2023,09:53:03.600,0.063,-0.063,1.000,,,,,
2_S2,09/05/2023,09:53:03.700,0.000,0.000,0.938,,,,,
2_S2,09/05/2023,09:53:03.800,0.063,0.000,0.938,,,,,
2_S2,09/05/2023,09:53:03.900,0.000,-0.063,0.938,,,,,
2_S2,09/05/2023,09:53:04.000,0.000,-0.125,0.938,700.5,-9160.5,9264.0,,
2_S2,09/05/2023,09:53:04.100,0.000,-0.125,1.000,,,,,
2_S2,09/05/2023,09:53:04.200,0.000,-0.063,0.938,,,,,
2_S2,09/05/2023,09:53:04.300,-0.063,-0.063,1.000,,,,,
2_S2,09/05/2023,09:53:04.400,-0.063,-0.063,1.063,,,,,
2_S2,09/05/2023,09:53:04.500,-0.063,-0.063,1.000,-1309.5,-3723.0,2349.0,,
2_S2,09/05/2023,09:53:04.600,-0.063,-0.125,1.000,,,,,
2_S2,09/05/2023,09:53:04.700,-0.063,-0.063,0.938,,,,,
2_S2,09/05/2023,09:53:04.800,-0.063,-0.063,1.000,,,,,
2_S2,09/05/2023,09:53:04.900,0.000,0.000,0.938,,,,,
2_S2,09/05/2023,09:53:05.000,0.000,-0.063,1.000,-498.0,-5115.0,2629.5,,
2_S2,09/05/2023,09:53:05.100,-0.056,-0.119,1.000,,,,,
2_S2,09/05/2023,09:53:05.200,-0.063,-0.025,1.050,,,,,
2_S2,09/05/2023,09:53:05.300,-0.063,-0.044,0.932,,,,,
2_S2,09/05/2023,09:53:05.400,-0.063,-0.025,0.950,,,,,
2_S2,09/05/2023,09:53:05.500,-0.031,-0.031,0.938,-1182.0,-3946.5,1999.5,,
2_S2,09/05/2023,09:53:05.600,-0.025,-0.063,0.925,,,,,
2_S2,09/05/2023,09:53:05.700,-0.044,-0.063,1.000,,,,,
2_S2,09/05/2023,09:53:05.800,0.000,0.025,0.963,,,,,
2_S2,09/05/2023,09:53:05.900,0.000,0.375,0.813,,,,,
2_S2,09/05/2023,09:53:06.000,-0.063,0.000,1.000,-2229.0,-5734.5,4056.0,,
2_S2,09/05/2023,09:53:06.100,0.000,0.000,1.000,,,,,
2_S2,09/05/2023,09:53:06.200,-0.063,0.000,1.000,,,,,
2_S2,09/05/2023,09:53:06.300,-0.188,-0.063,1.125,,,,,
2_S2,09/05/2023,09:53:06.400,-0.063,-0.063,1.000,,,,,
2_S2,09/05/2023,09:53:06.500,0.000,0.000,1.000,-1836.0,-5647.5,4354.5,,
2_S2,09/05/2023,09:53:06.600,-0.063,-0.063,1.000,,,,,
2_S2,09/05/2023,09:53:06.700,0.625,-1.313,1.813,,,,,
2_S2,09/05/2023,09:53:06.800,0.375,0.000,0.688,,,,,
2_S2,09/05/2023,09:53:06.900,-0.063,-0.063,0.938,,,,,
2_S2,09/05/2023,09:53:07.000,-0.063,-0.063,1.000,-592.5,-3747.0,1821.0,,
2_S2,09/05/2023,09:53:07.100,-0.063,-0.188,1.125,,,,,
2_S2,09/05/2023,09:53:07.200,-0.125,-0.063,1.063,,,,,
2_S2,09/05/2023,09:53:07.300,-0.063,0.000,0.938,,,,,
2_S2,09/05/2023,09:53:07.400,-0.063,-0.063,1.063,,,,,
2_S2,09/05/2023,09:53:07.500,0.000,0.000,1.000,156.0,-4863.0,2580.0,,
2_S2,09/05/2023,09:53:07.600,0.000,-0.063,0.938,,,,,
2_S2,09/05/2023,09:53:07.700,0.000,0.000,1.000,,,,,
2_S2,09/05/2023,09:53:07.800,-0.063,-0.063,1.000,,,,,
2_S2,09/05/2023,09:53:07.900,-0.125,-0.063,1.063,,,,,
2_S2,09/05/2023,09:53:08.000,-0.063,-0.063,1.000,1108.5,-11776.5,-4201.5,,
2_S2,09/05/2023,09:53:08.100,0.000,-0.063,1.063,,,,,
2_S2,09/05/2023,09:53:08.200,-0.938,0.188,0.875,,,,,
2_S2,09/05/2023,09:53:08.300,0.000,0.000,1.000,,,,,
2_S2,09/05/2023,09:53:08.400,-0.063,0.000,1.000,,,,,
2_S2,09/05/2023,09:53:08.500,-0.063,0.000,1.000,6339.0,-16812.0,-225.0,,
2_S2,09/05/2023,09:53:08.600,0.000,-0.063,1.000,,,,,
2_S2,09/05/2023,09:53:08.700,0.000,-0.063,1.000,,,,,
2_S2,09/05/2023,09:53:08.800,0.000,0.000,1.000,,,,,
2_S2,09/05/2023,09:53:08.900,0.000,-0.063,1.000,,,,,
2_S2,09/05/2023,09:53:09.000,0.000,0.000,1.000,8743.5,-25770.0,7533.0,,
2_S2,09/05/2023,09:53:09.100,-0.125,0.125,0.938,,,,,
2_S2,09/05/2023,09:53:09.200,-0.125,-0.063,1.063,,,,,
2_S2,09/05/2023,09:53:09.300,-0.063,-0.063,1.000,,,,,
2_S2,09/05/2023,09:53:09.400,0.000,-0.063,1.000,,,,,
2_S2,09/05/2023,09:53:09.500,-0.125,0.000,1.063,3579.0,-7452.0,4066.5,,
2_S2,09/05/2023,09:53:09.600,0.000,-0.063,1.063,,,,,
2_S2,09/05/2023,09:53:09.700,0.000,-0.063,1.000,,,,,
2_S2,09/05/2023,09:53:09.800,-0.125,-0.125,1.000,,,,,
2_S2,09/05/2023,09:53:09.900,-0.063,-0.063,1.000,,,,,
2_S2,09/05/2023,09:53:10.000,0.000,-0.125,0.938,370.5,364.5,1965.0,,
2_S2,09/05/2023,09:53:10.100,0.000,-0.069,0.994,,,,,
2_S2,09/05/2023,09:53:10.200,-0.050,-0.063,1.000,,,,,
2_S2,09/05/2023,09:53:10.300,-0.063,-0.063,0.957,,,,,
2_S2,09/05/2023,09:53:10.400,-0.063,-0.063,0.975,,,,,
2_S2,09/05/2023,09:53:10.500,-0.063,-0.063,1.000,-772.5,274.5,642.0,,
2_S2,09/05/2023,09:53:10.600,0.038,0.438,0.625,,,,,
2_S2,09/05/2023,09:53:10.700,0.131,0.813,0.344,,,,,
2_S2,09/05/2023,09:53:10.800,0.000,-0.075,1.000,,,,,
2_S2,09/05/2023,09:53:10.900,0.000,-0.125,1.000,,,,,
2_S2,09/05/2023,09:53:11.000,-0.063,-0.063,1.000,-1128.0,465.0,202.5,,
2_S2,09/05/2023,09:53:11.100,-0.063,0.000,1.000,,,,,
2_S2,09/05/2023,09:53:11.200,-0.063,-0.063,0.938,,,,,
2_S2,09/05/2023,09:53:11.300,0.000,-0.063,1.000,,,,,
2_S2,09/05/2023,09:53:11.400,0.000,-0.063,1.000,,,,,
2_S2,09/05/2023,09:53:11.500,0.000,-0.063,1.000,-1578.0,567.0,-109.5,,
2_S2,09/05/2023,09:53:11.600,0.000,-0.063,1.000,,,,,
2_S2,09/05/2023,09:53:11.700,0.000,-0.063,1.000,,,,,
2_S2,09/05/2023,09:53:11.800,-0.063,-0.063,1.000,,,,,
2_S2,09/05/2023,09:53:11.900,0.000,-0.063,1.000,,,,,
2_S2,09/05/2023,09:53:12.000,-0.063,-0.063,1.000,-2368.5,816.0,463.5,,
2_S2,09/05/2023,09:53:12.100,-0.063,-0.063,1.000,,,,,
2_S2,09/05/2023,09:53:12.200,0.000,-0.063,1.063,,,,,
2_S2,09/05/2023,09:53:12.300,0.000,-0.063,0.938,,,,,
2_S2,09/05/2023,09:53:12.400,0.000,-0.063,1.000,,,,,
2_S2,09/05/2023,09:53:12.500,-0.063,-0.063,0.938,-2982.0,865.5,994.5,,
2_S2,09/05/2023,09:53:12.600,0.000,-0.063,1.000,,,,,
2_S2,09/05/2023,09:53:12.700,0.000,0.000,1.000,,,,,
2_S2,09/05/2023,09:53:12.800,0.000,-0.063,1.000,,,,,
2_S2,09/05/2023,09:53:12.900,-0.063,-0.063,1.000,,,,,
2_S2,09/05/2023,09:53:13.000,0.000,0.000,0.938,-6826.5,1213.5,613.5,,
2_S2,09/05/2023,09:53:13.100,0.000,-0.063,1.000,,,,,
2_S2,09/05/2023,09:53:13.200,0.000,-0.063,1.063,,,,,
2_S2,09/05/2023,09:53:13.300,0.000,-0.063,1.000,,,,,
2_S2,09/05/2023,09:53:13.400,0.000,-0.063,1.063,,,,,
2_S2,09/05/2023,09:53:13.500,0.000,-0.063,1.000,-1179.0,630.0,792.0,,
2_S2,09/05/2023,09:53:13.600,-0.063,0.000,0.938,,,,,
2_S2,09/05/2023,09:53:13.700,0.000,-0.063,1.000,,,,,
2_S2,09/05/2023,09:53:13.800,0.000,0.000,1.063,,,,,
2_S2,09/05/2023,09:53:13.900,0.000,-0.063,1.000,,,,,
2_S2,09/05/2023,09:53:14.000,-0.063,0.000,0.938,-625.5,424.5,1012.5,,
2_S2,09/05/2023,09:53:14.100,0.000,-0.063,1.000,,,,,
2_S2,09/05/2023,09:53:14.200,-0.063,-0.063,1.000,,,,,
2_S2,09/05/2023,09:53:14.300,0.000,-0.063,1.000,,,,,
2_S2,09/05/2023,09:53:14.400,0.000,-0.063,1.000,,,,,
2_S2,09/05/2023,09:53:14.500,0.000,-0.063,1.000,-850.5,-45.0,3400.5,,
2_S2,09/05/2023,09:53:14.600,0.000,-0.063,1.000,,,,,
2_S2,09/05/2023,09:53:14.700,0.000,0.000,1.000,,,,,
2_S2,09/05/2023,09:53:14.800,0.000,0.000,0.938,,,,,
2_S2,09/05/2023,09:53:14.900,0.000,0.063,0.938,,,,,
2_S2,09/05/2023,09:53:15.000,0.063,0.000,1.063,1653.0,-14487.0,11223.0,,
2_S2,09/05/2023,09:53:15.100,-0.063,0.000,1.000,,,,,
2_S2,09/05/2023,09:53:15.200,0.000,-0.063,1.000,,,,,
2_S2,09/05/2023,09:53:15.300,0.188,-0.313,1.125,,,,,
2_S2,09/05/2023,09:53:15.400,0.000,-0.063,1.000,,,,,
2_S2,09/05/2023,09:53:15.500,-0.063,-0.063,1.063,3135.0,-22023.0,13972.5,,
2_S2,09/05/2023,09:53:15.600,0.000,-0.063,1.000,,,,,
2_S2,09/05/2023,09:53:15.700,0.000,-0.063,1.000,,,,,
2_S2,09/05/2023,09:53:15.800,0.000,-0.063,1.000,,,,,
2_S2,09/05/2023,09:53:15.900,0.000,-0.063,1.063,,,,,
2_S2,09/05/2023,09:53:16.000,0.000,0.000,1.000,543.0,-18948.0,14868.0,,
2_S2,09/05/2023,09:53:16.100,0.169,-0.056,0.888,,,,,
2_S2,09/05/2023,09:53:16.200,-0.163,-0.013,1.225,,,,,
2_S2,09/05/2023,09:53:16.300,-0.031,-0.044,1.094,,,,,
2_S2,09/05/2023,09:53:16.400,-0.013,-0.063,1.000,,,,,
2_S2,09/05/2023,09:53:16.500,-0.031,-0.063,1.000,-3420.0,-219.0,4744.5,,
2_S2,09/05/2023,09:53:16.600,-0.025,-0.063,1.000,,,,,
2_S2,09/05/2023,09:53:16.700,-0.044,-0.044,1.000,,,,,
2_S2,09/05/2023,09:53:16.800,-0.013,-0.013,0.950,,,,,
2_S2,09/05/2023,09:53:16.900,-0.063,-0.063,0.750,,,,,
2_S2,09/05/2023,09:53:17.000,-0.063,0.000,1.000,-1516.5,429.0,696.0,,
2_S2,09/05/2023,09:53:17.100,0.000,-0.063,1.000,,,,,
2_S2,09/05/2023,09:53:17.200,0.000,-0.063,1.000,,,,,
2_S2,09/05/2023,09:53:17.300,0.000,-0.063,1.000,,,,,
2_S2,09/05/2023,09:53:17.400,0.000,-0.063,1.000,,,,,
2_S2,09/05/2023,09:53:17.500,0.000,-0.063,1.063,-1039.5,312.0,795.0,,
2_S2,09/05/2023,09:53:17.600,0.000,-0.063,1.000,,,,,
2_S2,09/05/2023,09:53:17.700,0.000,-0.063,1.000,,,,,
2_S2,09/05/2023,09:53:17.800,-0.063,0.000,1.000,,,,,
2_S2,09/05/2023,09:53:17.900,0.000,-0.063,1.000,,,,,
2_S2,09/05/2023,09:53:18.000,-0.063,-0.063,1.000,-667.5,436.5,1444.5,,
2_S2,09/05/2023,09:53:18.100,0.000,-0.063,1.000,,,,,
2_S2,09/05/2023,09:53:18.200,-0.063,-0.063,1.000,,,,,
2_S2,09/05/2023,09:53:18.300,-0.250,0.125,0.813,,,,,
2_S2,09/05/2023,09:53:18.400,0.000,-0.063,1.000,,,,,
2_S2,09/05/2023,09:53:18.500,0.000,-0.063,1.000,6993.0,-3070.5,-2236.5,,
2_S2,09/05/2023,09:53:18.600,-0.063,-0.063,1.063,,,,,
2_S2,09/05/2023,09:53:18.700,-0.063,-0.063,1.000,,,,,
2_S2,09/05/2023,09:53:18.800,0.000,-0.063,1.000,,,,,
2_S2,09/05/2023,09:53:18.900,-0.063,0.000,1.000,,,,,
2_S2,09/05/2023,09:53:19.000,-0.063,-0.063,0.938,8569.5,-4282.5,-2658.0,,
2_S2,09/05/2023,09:53:19.100,0.000,0.000,1.000,,,,,
2_S2,09/05/2023,09:53:19.200,0.000,0.000,1.000,,,,,
2_S2,09/05/2023,09:53:19.300,0.000,-0.063,1.000,,,,,
2_S2,09/05/2023,09:53:19.400,0.000,-0.063,1.000,,,,,
2_S2,09/05/2023,09:53:19.500,0.000,-0.063,1.000,4510.5,21.0,3856.5,,
2_S2,09/05/2023,09:53:19.600,0.000,0.000,1.000,,,,,
2_S2,09/05/2023,09:53:19.700,0.000,-0.063,1.000,,,,,
2_S2,09/05/2023,09:53:19.800,0.000,0.000,1.000,,,,,
2_S2,09/05/2023,09:53:19.900,0.000,0.000,1.000,,,,,
2_S2,09/05/2023,09:53:20.000,0.000,0.000,1.063,-2629.5,4023.0,7879.5,,
2_S2,09/05/2023,09:53:20.100,0.000,-0.063,1.000,,,,,
2_S2,09/05/2023,09:53:20.200,0.000,-0.063,1.063,,,,,
2_S2,09/05/2023,09:53:20.300,0.000,0.000,0.938,,,,,
2_S2,09/05/2023,09:53:20.400,0.000,-0.063,0.938,,,,,
2_S2,09/05/2023,09:53:20.500,0.000,-0.063,1.000,-6378.0,6748.5,6981.0,,
2_S2,09/05/2023,09:53:20.600,0.000,0.000,1.000,,,,,
2_S2,09/05/2023,09:53:20.700,0.000,-0.063,1.063,,,,,
2_S2,09/05/2023,09:53:20.800,0.000,-0.063,1.000,,,,,
2_S2,09/05/2023,09:53:20.900,0.000,0.000,1.000,,,,,
2_S2,09/05/2023,09:53:21.000,0.000,-0.063,1.000,-3646.5,2391.0,2773.5,,
2_S2,09/05/2023,09:53:21.100,0.056,-0.006,1.000,,,,,
2_S2,09/05/2023,09:53:21.200,0.013,-0.050,1.000,,,,,
2_S2,09/05/2023,09:53:21.300,0.000,-0.063,1.000,,,,,
2_S2,09/05/2023,09:53:21.400,0.000,-0.063,1.038,,,,,
2_S2,09/05/2023,09:53:21.500,-0.031,-0.031,1.063,-1092.0,270.0,721.5,,
2_S2,09/05/2023,09:53:21.600,-0.063,-0.025,1.038,,,,,
2_S2,09/05/2023,09:53:21.700,-0.044,-0.063,1.000,,,,,
2_S2,09/05/2023,09:53:21.800,0.000,-0.063,1.000,,,,,
2_S2,09/05/2023,09:53:21.900,0.000,-0.063,1.000,,,,,
2_S2,09/05/2023,09:53:22.000,0.000,0.000,1.000,-1599.0,466.5,730.5,,
2_S2,09/05/2023,09:53:22.100,0.000,0.000,1.000,,,,,
2_S2,09/05/2023,09:53:22.200,0.000,-0.063,1.000,,,,,
2_S2,09/05/2023,09:53:22.300,0.000,-0.063,1.000,,,,,
2_S2,09/05/2023,09:53:22.400,0.000,-0.063,1.000,,,,,
2_S2,09/05/2023,09:53:22.500,0.000,0.000,1.000,-2907.0,483.0,909.0,,
2_S2,09/05/2023,09:53:22.600,0.000,0.000,0.938,,,,,
2_S2,09/05/2023,09:53:22.700,0.000,0.000,1.000,,,,,
2_S2,09/05/2023,09:53:22.800,0.000,0.000,1.000,,,,,
2_S2,09/05/2023,09:53:22.900,0.000,0.000,0.938,,,,,
2_S2,09/05/2023,09:53:23.000,0.000,-0.063,1.000,-6652.5,-319.5,534.0,,
2_S2,09/05/2023,09:53:23.100,0.000,-0.063,1.000,,,,,
2_S2,09/05/2023,09:53:23.200,0.000,0.000,1.063,,,,,
2_S2,09/05/2023,09:53:23.300,-0.063,0.000,1.000,,,,,
2_S2,09/05/2023,09:53:23.400,-0.063,-0.063,0.938,,,,,
2_S2,09/05/2023,09:53:23.500,-0.063,0.000,0.938,-10182.0,3264.0,-10195.5,,
2_S2,09/05/2023,09:53:23.600,0.000,-0.063,1.000,,,,,
2_S2,09/05/2023,09:53:23.700,0.000,-0.063,1.000,,,,,
2_S2,09/05/2023,09:53:23.800,0.063,0.000,1.000,,,,,
2_S2,09/05/2023,09:53:23.900,-0.063,0.000,0.938,,,,,
2_S2,09/05/2023,09:53:24.000,-0.063,-0.063,1.063,-12832.5,5169.0,1351.5,,
2_S2,09/05/2023,09:53:24.100,-0.063,-0.063,0.938,,,,,
2_S2,09/05/2023,09:53:24.200,0.000,-0.063,1.000,,,,,
2_S2,09/05/2023,09:53:24.300,-0.063,-0.063,1.000,,,,,
2_S2,09/05/2023,09:53:24.400,-0.063,0.000,1.063,,,,,
2_S2,09/05/2023,09:53:24.500,0.000,-0.188,0.750,4293.0,-12918.0,9027.0,,
2_S2,09/05/2023,09:53:24.600,-0.188,0.063,0.938,,,,,
2_S2,09/05/2023,09:53:24.700,0.000,-0.063,1.000,,,,,
2_S2,09/05/2023,09:53:24.800,-0.063,0.000,1.000,,,,,
2_S2,09/05/2023,09:53:24.900,-0.063,0.000,1.000,,,,,
2_S2,09/05/2023,09:53:25.000,0.000,-0.063,1.000,5431.5,-3988.5,-2256.0,,
2_S2,09/05/2023,09:53:25.100,-0.063,-0.063,1.000,,,,,
2_S2,09/05/2023,09:53:25.200,0.000,0.063,1.188,,,,,
2_S2,09/05/2023,09:53:25.300,-0.063,0.000,1.000,,,,,
2_S2,09/05/2023,09:53:25.400,0.125,-0.063,1.000,,,,,
2_S2,09/05/2023,09:53:25.500,0.000,0.000,1.000,-924.0,2884.5,7500.0,,
2_S2,09/05/2023,09:53:25.600,0.000,0.000,1.000,,,,,
2_S2,09/05/2023,09:53:25.700,0.000,0.000,0.938,,,,,
2_S2,09/05/2023,09:53:25.800,0.000,-0.063,1.000,,,,,
2_S2,09/05/2023,09:53:25.900,0.000,0.000,1.000,,,,,
2_S2,09/05/2023,09:53:26.000,0.000,-0.063,1.000,-2013.0,3508.5,7612.5,,
2_S2,09/05/2023,09:53:26.100,0.000,-0.006,1.000,,,,,
2_S2,09/05/2023,09:53:26.200,0.000,-0.050,1.000,,,,,
2_S2,09/05/2023,09:53:26.300,0.000,-0.063,1.000,,,,,
2_S2,09/05/2023,09:53:26.400,0.000,-0.063,1.000,,,,,
2_S2,09/05/2023,09:53:26.500,0.000,-0.031,1.000,-1768.5,1336.5,3027.0,,
2_S2,09/05/2023,09:53:26.600,0.000,-0.025,1.000,,,,,
2_S2,09/05/2023,09:53:26.700,0.000,-0.063,1.000,,,,,
2_S2,09/05/2023,09:53:26.800,0.000,-0.063,1.000,,,,,
2_S2,09/05/2023,09:53:26.900,0.000,-0.063,1.000,,,,,
2_S2,09/05/2023,09:53:27.000,0.000,-0.063,1.000,-648.0,582.0,2509.5,,
2_S2,09/05/2023,09:53:27.100,0.000,-0.063,1.000,,,,,
2_S2,09/05/2023,09:53:27.200,0.000,-0.063,1.000,,,,,
2_S2,09/05/2023,09:53:27.300,0.000,-0.125,1.000,,,,,
2_S2,09/05/2023,09:53:27.400,0.000,-0.063,1.000,,,,,
2_S2,09/05/2023,09:53:27.500,-0.063,-0.125,1.063,-1086.0,364.5,1416.0,,
2_S2,09/05/2023,09:53:27.600,0.000,-0.063,0.938,,,,,
2_S2,09/05/2023,09:53:27.700,0.000,-0.063,1.063,,,,,
2_S2,09/05/2023,09:53:27.800,0.000,-0.063,1.000,,,,,
2_S2,09/05/2023,09:53:27.900,0.000,-0.063,0.938,,,,,
2_S2,09/05/2023,09:53:28.000,0.000,-0.125,1.000,-1408.5,295.5,1171.5,,
2_S2,09/05/2023,09:53:28.100,0.000,-0.063,1.000,,,,,
2_S2,09/05/2023,09:53:28.200,0.000,0.000,1.000,,,,,
2_S2,09/05/2023,09:53:28.300,-0.063,-0.063,1.125,,,,,
2_S2,09/05/2023,09:53:28.400,-0.063,-0.063,1.063,,,,,
2_S2,09/05/2023,09:53:28.500,0.000,-0.063,0.938,-2817.0,555.0,1245.0,,
2_S2,09/05/2023,09:53:28.600,-0.063,-0.063,1.000,,,,,
2_S2,09/05/2023,09:53:28.700,0.000,-0.063,1.000,,,,,
2_S2,09/05/2023,09:53:28.800,0.000,-0.063,1.000,,,,,
2_S2,09/05/2023,09:53:28.900,0.000,0.000,1.000,,,,,
2_S2,09/05/2023,09:53:29.000,-0.313,0.125,1.375,-8758.5,-1608.0,-6420.0,,
2_S2,09/05/2023,09:53:29.100,0.000,-0.063,1.000,,,,,
2_S2,09/05/2023,09:53:29.200,0.000,0.000,1.063,,,,,
2_S2,09/05/2023,09:53:29.300,-0.063,-0.063,1.000,,,,,
2_S2,09/05/2023,09:53:29.400,-0.063,-0.063,1.000,,,,,
2_S2,09/05/2023,09:53:29.500,-0.063,-0.063,1.000,-12949.5,-307.5,-928.5,,
2_S2,09/05/2023,09:53:29.600,-0.063,-0.063,1.000,,,,,
2_S2,09/05/2023,09:53:29.700,-0.063,-0.063,1.000,,,,,
2_S2,09/05/2023,09:53:29.800,-0.063,-0.063,1.063,,,,,
2_S2,09/05/2023,09:53:29.900,-0.063,0.000,1.000,,,,,
2_S2,09/05/2023,09:53:30.000,-0.063,-0.063,0.938,-3460.5,-4081.5,12154.5,,
2_S2,09/05/2023,09:53:30.100,-0.125,-0.063,1.000,,,,,
2_S2,09/05/2023,09:53:30.200,0.125,-0.250,1.000,,,,,
2_S2,09/05/2023,09:53:30.300,0.250,-0.375,1.125,,,,,
2_S2,09/05/2023,09:53:30.400,-0.063,-0.063,1.000,,,,,
2_S2,09/05/2023,09:53:30.500,-0.063,-0.063,1.000,-2742.0,180.0,5287.5,,
2_S2,09/05/2023,09:53:30.600,0.000,-0.063,1.000,,,,,
2_S2,09/05/2023,09:53:30.700,-0.063,-0.125,1.063,,,,,
2_S2,09/05/2023,09:53:30.800,0.000,-0.063,1.000,,,,,
2_S2,09/05/2023,09:53:30.900,-0.063,0.000,1.000,,,,,
2_S2,09/05/2023,09:53:31.000,-0.188,0.188,1.188,9121.5,-9390.0,7797.0,,
2_S2,09/05/2023,09:53:31.100,-0.250,0.000,1.063,,,,,
2_S2,09/05/2023,09:53:31.200,-0.063,-0.125,1.000,,,,,
2_S2,09/05/2023,09:53:31.300,-0.063,-0.125,1.000,,,,,
2_S2,09/05/2023,09:53:31.400,-0.063,-0.063,1.000,,,,,
2_S2,09/05/2023,09:53:31.500,-0.063,-0.125,1.063,2596.5,-1324.5,-739.5,,
2_S2,09/05/2023,09:53:31.600,-0.063,-0.063,0.938,,,,,
2_S2,09/05/2023,09:53:31.700,-0.063,-0.063,1.000,,,,,
2_S2,09/05/2023,09:53:31.800,-0.063,-0.063,1.000,,,,,
2_S2,09/05/2023,09:53:31.900,0.000,-0.125,0.938,,,,,
2_S2,09/05/2023,09:53:32.000,0.000,0.000,1.000,2184.0,-1051.5,-516.0,,
2_S2,09/05/2023,09:53:32.100,0.000,-0.056,1.000,,,,,
2_S2,09/05/2023,09:53:32.200,-0.050,-0.113,1.000,,,,,
2_S2,09/05/2023,09:53:32.300,-0.063,-0.081,1.000,,,,,
2_S2,09/05/2023,09:53:32.400,-0.063,-0.063,1.000,,,,,
2_S2,09/05/2023,09:53:32.500,-0.094,-0.031,0.969,2413.5,-894.0,-61.5,,
2_S2,09/05/2023,09:53:32.600,-0.100,-0.025,0.963,,,,,
2_S2,09/05/2023,09:53:32.700,-0.063,-0.063,1.000,,,,,
2_S2,09/05/2023,09:53:32.800,-0.063,-0.063,0.988,,,,,
2_S2,09/05/2023,09:53:32.900,-0.063,-0.063,0.938,,,,,
2_S2,09/05/2023,09:53:33.000,0.000,-0.063,1.000,-303.0,438.0,777.0,,
2_S2,09/05/2023,09:53:33.100,-0.063,-0.063,0.938,,,,,
2_S2,09/05/2023,09:53:33.200,-0.063,-0.063,1.000,,,,,
2_S2,09/05/2023,09:53:33.300,-0.063,-0.063,1.063,,,,,
2_S2,09/05/2023,09:53:33.400,0.000,-0.063,1.000,,,,,
2_S2,09/05/2023,09:53:33.500,0.000,-0.063,1.000,-2106.0,604.5,873.0,,
2_S2,09/05/2023,09:53:33.600,0.000,-0.063,1.000,,,,,
2_S2,09/05/2023,09:53:33.700,-0.063,-0.063,1.000,,,,,
2_S2,09/05/2023,09:53:33.800,0.000,-0.063,1.000,,,,,
2_S2,09/05/2023,09:53:33.900,-0.063,-0.063,0.938,,,,,
2_S2,09/05/2023,09:53:34.000,0.063,0.000,0.938,-9760.5,-1366.5,-1752.0,,
2_S2,09/05/2023,09:53:34.100,-0.063,0.000,1.063,,,,,
2_S2,09/05/2023,09:53:34.200,0.000,0.000,1.000,,,,,
2_S2,09/05/2023,09:53:34.300,-0.063,-0.125,1.000,,,,,
2_S2,09/05/2023,09:53:34.400,-0.063,-0.125,1.000,,,,,
2_S2,09/05/2023,09:53:34.500,-0.063,0.000,1.000,-14290.5,-2976.0,-12790.5,,
2_S2,09/05/2023,09:53:34.600,-0.063,-0.063,1.000,,,,,
2_S2,09/05/2023,09:53:34.700,-0.125,0.000,1.000,,,,,
2_S2,09/05/2023,09:53:34.800,-0.063,-0.063,1.000,,,,,
2_S2,09/05/2023,09:53:34.900,-0.063,-0.063,1.063,,,,,
2_S2,09/05/2023,09:53:35.000,-0.063,-0.063,1.000,-9633.0,-4147.5,7362.0,,
2_S2,09/05/2023,09:53:35.100,-0.063,-0.063,0.938,,,,,
2_S2,09/05/2023,09:53:35.200,0.000,-0.063,1.000,,,,,
2_S2,09/05/2023,09:53:35.300,-0.500,-0.250,-0.250,,,,,
2_S2,09/05/2023,09:53:35.400,-0.063,0.000,1.000,,,,,
2_S2,09/05/2023,09:53:35.500,-0.125,0.000,1.125,8988.0,-5416.5,5776.5,,
2_S2,09/05/2023,09:53:35.600,-0.063,-0.063,1.000,,,,,
2_S2,09/05/2023,09:53:35.700,-0.063,-0.063,1.000,,,,,
2_S2,09/05/2023,09:53:35.800,-0.063,-0.063,0.875,,,,,
2_S2,09/05/2023,09:53:35.900,-0.063,-0.063,1.000,,,,,
2_S2,09/05/2023,09:53:36.000,-0.063,-0.125,1.063,3015.0,-1584.0,-1446.0,,
2_S2,09/05/2023,09:53:36.100,-0.063,0.000,0.938,,,,,
2_S2,09/05/2023,09:53:36.200,-0.063,-0.063,1.000,,,,,
2_S2,09/05/2023,09:53:36.300,-0.313,0.000,1.063,,,,,
2_S2,09/05/2023,09:53:36.400,0.000,-0.063,1.000,,,,,
2_S2,09/05/2023,09:53:36.500,-0.063,-0.063,1.000,2131.5,-1033.5,-579.0,,
2_S2,09/05/2023,09:53:36.600,0.000,-0.125,0.938,,,,,
2_S2,09/05/2023,09:53:36.700,0.000,-0.063,1.000,,,,,
2_S2,09/05/2023,09:53:36.800,-0.063,-0.063,1.063,,,,,
2_S2,09/05/2023,09:53:36.900,0.000,-0.063,1.000,,,,,
2_S2,09/05/2023,09:53:37.000,0.000,0.000,1.000,3246.0,-1134.0,541.5,,
2_S2,09/05/2023,09:53:37.100,0.000,-0.056,1.000,,,,,
2_S2,09/05/2023,09:53:37.200,-0.050,-0.063,1.050,,,,,
2_S2,09/05/2023,09:53:37.300,-0.063,-0.063,1.019,,,,,
2_S2,09/05/2023,09:53:37.400,-0.063,-0.063,1.038,,,,,
2_S2,09/05/2023,09:53:37.500,-0.031,-0.063,1.032,-924.0,540.0,1065.0,,
2_S2,09/05/2023,09:53:37.600,-0.025,-0.063,1.000,,,,,
2_S2,09/05/2023,09:53:37.700,-0.063,-0.081,1.000,,,,,
2_S2,09/05/2023,09:53:37.800,-0.050,-0.100,0.975,,,,,
2_S2,09/05/2023,09:53:37.900,0.000,0.000,0.875,,,,,
2_S2,09/05/2023,09:53:38.000,0.000,0.125,0.938,-606.0,397.5,231.0,,
2_S2,09/05/2023,09:53:38.100,0.000,0.188,0.938,,,,,
2_S2,09/05/2023,09:53:38.200,0.000,0.188,1.000,,,,,
2_S2,09/05/2023,09:53:38.300,0.063,0.125,0.938,,,,,
2_S2,09/05/2023,09:53:38.400,0.000,0.188,1.063,,,,,
2_S2,09/05/2023,09:53:38.500,0.000,0.125,1.000,-1078.5,556.5,90.0,,
2_S2,09/05/2023,09:53:38.600,-0.063,0.125,0.938,,,,,
2_S2,09/05/2023,09:53:38.700,-0.125,0.000,1.000,,,,,
2_S2,09/05/2023,09:53:38.800,-0.125,-0.125,1.000,,,,,
2_S2,09/05/2023,09:53:38.900,-0.063,-0.063,1.000,,,,,
2_S2,09/05/2023,09:53:39.000,-0.125,-0.063,1.000,-1509.0,-822.0,6639.0,,
2_S2,09/05/2023,09:53:39.100,-0.125,-0.125,1.000,,,,,
2_S2,09/05/2023,09:53:39.200,-0.125,0.000,1.000,,,,,
2_S2,09/05/2023,09:53:39.300,-0.125,0.000,1.000,,,,,
2_S2,09/05/2023,09:53:39.400,-0.125,0.000,1.000,,,,,
2_S2,09/05/2023,09:53:39.500,-0.125,0.000,1.063,6423.0,-27225.0,4482.0,,
2_S2,09/05/2023,09:53:39.600,-0.125,0.000,1.125,,,,,
2_S2,09/05/2023,09:53:39.700,-0.125,-0.063,0.938,,,,,
2_S2,09/05/2023,09:53:39.800,0.000,0.000,1.000,,,,,
2_S2,09/05/2023,09:53:39.900,0.000,-0.063,1.063,,,,,
2_S2,09/05/2023,09:53:40.000,-0.063,-0.063,0.938,-4053.0,-7128.0,12384.0,,
2_S2,09/05/2023,09:53:40.100,-0.125,-0.063,1.000,,,,,
2_S2,09/05/2023,09:53:40.200,-0.063,-0.063,1.063,,,,,
2_S2,09/05/2023,09:53:40.300,-0.063,0.125,0.938,,,,,
2_S2,09/05/2023,09:53:40.400,-0.063,0.188,1.000,,,,,
2_S2,09/05/2023,09:53:40.500,0.000,0.250,0.938,-1993.5,444.0,1392.0,,
2_S2,09/05/2023,09:53:40.600,0.063,0.250,0.938,,,,,
2_S2,09/05/2023,09:53:40.700,0.125,0.250,1.000,,,,,
2_S2,09/05/2023,09:53:40.800,0.000,0.375,0.875,,,,,
2_S2,09/05/2023,09:53:40.900,0.063,0.313,0.875,,,,,
2_S2,09/05/2023,09:53:41.000,0.000,0.375,1.063,-1977.0,703.5,-265.5,,
2_S2,09/05/2023,09:53:41.100,0.000,0.188,0.938,,,,,
2_S2,09/05/2023,09:53:41.200,0.000,0.188,0.938,,,,,
2_S2,09/05/2023,09:53:41.300,-0.063,0.063,1.000,,,,,
2_S2,09/05/2023,09:53:41.400,-0.063,0.125,0.938,,,,,
2_S2,09/05/2023,09:53:41.500,0.000,0.063,0.938,-3814.5,937.5,2137.5,,
2_S2,09/05/2023,09:53:41.600,0.000,0.063,1.000,,,,,
2_S2,09/05/2023,09:53:41.700,-0.125,0.125,1.000,,,,,
2_S2,09/05/2023,09:53:41.800,-0.125,0.125,1.000,,,,,
2_S2,09/05/2023,09:53:41.900,-0.125,0.063,1.000,,,,,
2_S2,09/05/2023,09:53:42.000,-0.250,0.000,1.000,-5016.0,-507.0,6714.0,,
2_S2,09/05/2023,09:53:42.100,-0.138,0.000,1.000,,,,,
2_S2,09/05/2023,09:53:42.200,-0.125,0.000,1.000,,,,,
2_S2,09/05/2023,09:53:42.300,-0.125,0.000,1.000,,,,,
2_S2,09/05/2023,09:53:42.400,-0.125,-0.038,0.963,,,,,
2_S2,09/05/2023,09:53:42.500,-0.125,-0.063,0.969,5392.5,-26496.0,7977.0,,
2_S2,09/05/2023,09:53:42.600,-0.125,-0.088,1.000,,,,,
2_S2,09/05/2023,09:53:42.700,-0.144,-0.144,1.019,,,,,
2_S2,09/05/2023,09:53:42.800,-0.175,-0.188,1.038,,,,,
2_S2,09/05/2023,09:53:42.900,-0.125,-0.188,0.938,,,,,
2_S2,09/05/2023,09:53:43.000,-0.125,-0.063,0.875,-1902.0,-8569.5,12076.5,,
2_S2,09/05/2023,09:53:43.100,-0.188,0.000,0.938,,,,,
2_S2,09/05/2023,09:53:43.200,-0.125,0.125,1.063,,,,,
2_S2,09/05/2023,09:53:43.300,-0.063,0.188,0.938,,,,,
2_S2,09/05/2023,09:53:43.400,-0.063,0.250,1.000,,,,,
2_S2,09/05/2023,09:53:43.500,0.000,0.313,1.000,-1350.0,384.0,804.0,,
2_S2,09/05/2023,09:53:43.600,0.063,0.375,0.938,,,,,
2_S2,09/05/2023,09:53:43.700,0.000,0.250,1.063,,,,,
2_S2,09/05/2023,09:53:43.800,0.125,0.438,0.938,,,,,
2_S2,09/05/2023,09:53:43.900,0.063,0.250,0.938,,,,,
2_S2,09/05/2023,09:53:44.000,0.000,0.250,1.000,-2370.0,756.0,-94.5,,
2_S2,09/05/2023,09:53:44.100,0.063,0.188,1.000,,,,,
2_S2,09/05/2023,09:53:44.200,0.188,0.188,1.063,,,,,
2_S2,09/05/2023,09:53:44.300,0.063,0.188,0.938,,,,,
2_S2,09/05/2023,09:53:44.400,0.063,0.188,1.063,,,,,
2_S2,09/05/2023,09:53:44.500,0.000,0.063,1.000,-1710.0,612.0,1041.0,,
2_S2,09/05/2023,09:53:44.600,0.000,0.188,1.000,,,,,
2_S2,09/05/2023,09:53:44.700,0.000,0.188,0.938,,,,,
2_S2,09/05/2023,09:53:44.800,0.000,0.188,0.938,,,,,
2_S2,09/05/2023,09:53:44.900,0.000,0.125,1.000,,,,,
2_S2,09/05/2023,09:53:45.000,-0.125,0.063,1.000,-1720.5,619.5,2170.5,,
2_S2,09/05/2023,09:53:45.100,-0.125,0.125,1.063,,,,,
2_S2,09/05/2023,09:53:45.200,-0.125,0.000,1.000,,,,,
2_S2,09/05/2023,09:53:45.300,-0.063,0.000,0.938,,,,,
2_S2,09/05/2023,09:53:45.400,-0.125,0.000,1.000,,,,,
2_S2,09/05/2023,09:53:45.500,-0.125,-0.063,1.000,-5355.0,-2122.5,8227.5,,
2_S2,09/05/2023,09:53:45.600,-0.125,0.000,1.000,,,,,
2_S2,09/05/2023,09:53:45.700,-0.063,0.000,0.938,,,,,
2_S2,09/05/2023,09:53:45.800,-0.125,-0.063,0.938,,,,,
2_S2,09/05/2023,09:53:45.900,-0.125,0.125,1.000,,,,,
2_S2,09/05/2023,09:53:46.000,0.000,0.063,1.125,-5175.0,-3235.5,8527.5,,
2_S2,09/05/2023,09:53:46.100,-0.125,0.188,1.000,,,,,
2_S2,09/05/2023,09:53:46.200,-0.125,0.188,1.000,,,,,
2_S2,09/05/2023,09:53:46.300,-0.063,0.250,1.000,,,,,
2_S2,09/05/2023,09:53:46.400,-0.063,0.188,0.938,,,,,
2_S2,09/05/2023,09:53:46.500,0.000,0.313,1.063,-1528.5,340.5,702.0,,
2_S2,09/05/2023,09:53:46.600,0.000,0.375,1.063,,,,,
2_S2,09/05/2023,09:53:46.700,-0.188,0.500,1.000,,,,,
2_S2,09/05/2023,09:53:46.800,-0.125,0.188,1.125,,,,,
2_S2,09/05/2023,09:53:46.900,-0.063,0.438,0.625,,,,,
2_S2,09/05/2023,09:53:47.000,-0.063,0.000,1.063,-6226.5,-31.5,-4204.5,,
2_S2,09/05/2023,09:53:47.100,0.000,-0.250,1.063,,,,,
2_S2,09/05/2023,09:53:47.200,-0.125,-0.063,1.000,,,,,
2_S2,09/05/2023,09:53:47.300,0.313,0.000,0.875,,,,,
2_S2,09/05/2023,09:53:47.400,-0.063,0.000,1.000,,,,,
2_S2,09/05/2023,09:53:47.500,-0.188,0.000,1.063,457.5,430.5,-7299.0,,
2_S2,09/05/2023,09:53:47.600,-0.313,-0.063,1.063,,,,,
2_S2,09/05/2023,09:53:47.700,-0.313,0.000,1.063,,,,,
2_S2,09/05/2023,09:53:47.800,-0.313,-0.063,0.938,,,,,
2_S2,09/05/2023,09:53:47.900,-0.250,-0.063,0.875,,,,,
2_S2,09/05/2023,09:53:48.000,-0.188,-0.063,0.875,339.0,381.0,-7956.0,,
2_S2,09/05/2023,09:53:48.100,-0.131,-0.231,1.044,,,,,
2_S2,09/05/2023,09:53:48.200,0.025,-0.150,1.213,,,,,
2_S2,09/05/2023,09:53:48.300,-0.069,-0.125,1.075,,,,,
2_S2,09/05/2023,09:53:48.400,-0.125,-0.088,0.963,,,,,
2_S2,09/05/2023,09:53:48.500,-0.219,-0.063,1.094,-741.0,-58.5,-5608.5,,
2_S2,09/05/2023,09:53:48.600,-0.188,0.038,1.175,,,,,
2_S2,09/05/2023,09:53:48.700,0.000,0.169,1.007,,,,,
2_S2,09/05/2023,09:53:48.800,-0.013,0.138,0.888,,,,,
2_S2,09/05/2023,09:53:48.900,-0.063,0.188,0.938,,,,,
2_S2,09/05/2023,09:53:49.000,-0.125,0.125,1.000,-3952.5,1504.5,1434.0,,
2_S2,09/05/2023,09:53:49.100,-0.063,0.188,0.938,,,,,
2_S2,09/05/2023,09:53:49.200,-0.063,0.188,1.000,,,,,
2_S2,09/05/2023,09:53:49.300,0.063,0.250,1.000,,,,,
2_S2,09/05/2023,09:53:49.400,-0.063,0.250,0.750,,,,,
2_S2,09/05/2023,09:53:49.500,0.000,0.063,0.875,-4288.5,873.0,522.0,,
2_S2,09/05/2023,09:53:49.600,-0.063,0.000,0.938,,,,,
2_S2,09/05/2023,09:53:49.700,-0.313,0.000,0.750,,,,,
2_S2,09/05/2023,09:53:49.800,-0.250,-0.125,0.938,,,,,
2_S2,09/05/2023,09:53:49.900,-0.125,-0.188,0.938,,,,,
2_S2,09/05/2023,09:53:50.000,-0.125,-0.063,1.000,-1561.5,660.0,924.0,,
2_S2,09/05/2023,09:53:50.100,-0.063,-0.063,1.188,,,,,
2_S2,09/05/2023,09:53:50.200,-0.063,0.000,1.000,,,,,
2_S2,09/05/2023,09:53:50.300,0.000,0.000,1.000,,,,,
2_S2,09/05/2023,09:53:50.400,-0.063,0.000,1.000,,,,,
2_S2,09/05/2023,09:53:50.500,0.000,0.125,1.063,-2106.0,699.0,1341.0,,
2_S2,09/05/2023,09:53:50.600,-0.063,0.000,1.000,,,,,
2_S2,09/05/2023,09:53:50.700,-0.125,-0.063,1.000,,,,,
2_S2,09/05/2023,09:53:50.800,-0.063,-0.125,0.938,,,,,
2_S2,09/05/2023,09:53:50.900,-0.125,-0.188,0.938,,,,,
2_S2,09/05/2023,09:53:51.000,-0.188,-0.250,0.938,-5653.5,699.0,2628.0,,
2_S2,09/05/2023,09:53:51.100,-0.188,-0.250,0.938,,,,,
2_S2,09/05/2023,09:53:51.200,-0.188,-0.125,1.000,,,,,
2_S2,09/05/2023,09:53:51.300,-0.375,-0.313,1.000,,,,,
2_S2,09/05/2023,09:53:51.400,-0.313,-0.375,0.938,,,,,
2_S2,09/05/2023,09:53:51.500,-0.250,-0.188,1.000,-16635.0,-5127.0,5073.0,,
2_S2,09/05/2023,09:53:51.600,-0.188,-0.125,1.063,,,,,
2_S2,09/05/2023,09:53:51.700,-0.188,-0.063,1.000,,,,,
2_S2,09/05/2023,09:53:51.800,-0.063,0.000,1.063,,,,,
2_S2,09/05/2023,09:53:51.900,0.000,-0.313,1.063,,,,,
2_S2,09/05/2023,09:53:52.000,-0.125,0.000,1.000,-652.5,291.0,744.0,,
2_S2,09/05/2023,09:53:52.100,-0.063,0.000,1.000,,,,,
2_S2,09/05/2023,09:53:52.200,0.000,0.000,0.938,,,,,
2_S2,09/05/2023,09:53:52.300,0.000,0.000,0.938,,,,,
2_S2,09/05/2023,09:53:52.400,0.000,-0.125,0.938,,,,,
2_S2,09/05/2023,09:53:52.500,-0.063,-0.063,1.000,-936.0,300.0,589.5,,
2_S2,09/05/2023,09:53:52.600,-0.063,-0.063,1.063,,,,,
2_S2,09/05/2023,09:53:52.700,-0.125,0.000,1.063,,,,,
2_S2,09/05/2023,09:53:52.800,-0.063,-0.063,1.000,,,,,
2_S2,09/05/2023,09:53:52.900,-0.063,-0.188,1.063,,,,,
2_S2,09/05/2023,09:53:53.000,-0.063,-0.125,1.000,-2106.0,742.5,-187.5,,
2_S2,09/05/2023,09:53:53.100,-0.063,-0.069,1.000,,,,,
2_S2,09/05/2023,09:53:53.200,-0.113,-0.113,1.000,,,,,
2_S2,09/05/2023,09:53:53.300,-0.125,-0.125,0.957,,,,,
2_S2,09/05/2023,09:53:53.400,-0.125,-0.125,1.013,,,,,
2_S2,09/05/2023,09:53:53.500,-0.094,-0.094,1.032,-1687.5,667.5,304.5,,
2_S2,09/05/2023,09:53:53.600,-0.063,-0.063,1.000,,,,,
2_S2,09/05/2023,09:53:53.700,-0.044,-0.025,1.000,,,,,
2_S2,09/05/2023,09:53:53.800,-0.025,0.013,0.988,,,,,
2_S2,09/05/2023,09:53:53.900,-0.125,-0.188,0.938,,,,,
2_S2,09/05/2023,09:53:54.000,-0.125,-0.125,1.000,-712.5,426.0,1096.5,,
2_S2,09/05/2023,09:53:54.100,-0.063,0.063,1.063,,,,,
2_S2,09/05/2023,09:53:54.200,-0.125,-0.063,0.938,,,,,
2_S2,09/05/2023,09:53:54.300,-0.063,0.000,0.938,,,,,
2_S2,09/05/2023,09:53:54.400,-0.125,-0.063,1.063,,,,,
2_S2,09/05/2023,09:53:54.500,-0.125,-0.063,1.000,-1305.0,432.0,189.0,,
2_S2,09/05/2023,09:53:54.600,-0.125,-0.188,1.000,,,,,
2_S2,09/05/2023,09:53:54.700,-0.125,-0.063,1.000,,,,,
2_S2,09/05/2023,09:53:54.800,-0.125,-0.063,1.000,,,,,
2_S2,09/05/2023,09:53:54.900,-0.063,-0.063,1.000,,,,,
2_S2,09/05/2023,09:53:55.000,-0.063,0.000,1.000,-2011.5,766.5,60.0,,
2_S2,09/05/2023,09:53:55.100,-0.125,0.000,1.000,,,,,
2_S2,09/05/2023,09:53:55.200,-0.063,0.063,1.000,,,,,
2_S2,09/05/2023,09:53:55.300,-0.063,-0.063,0.938,,,,,
2_S2,09/05/2023,09:53:55.400,-0.063,-0.063,1.000,,,,,
2_S2,09/05/2023,09:53:55.500,0.000,0.000,1.063,-844.5,330.0,751.5,,
2_S2,09/05/2023,09:53:55.600,-0.063,-0.063,1.000,,,,,
2_S2,09/05/2023,09:53:55.700,-0.063,0.000,1.000,,,,,
2_S2,09/05/2023,09:53:55.800,-0.063,-0.063,1.000,,,,,
2_S2,09/05/2023,09:53:55.900,-0.063,-0.063,1.000,,,,,
2_S2,09/05/2023,09:53:56.000,-0.063,-0.063,1.000,-1039.5,391.5,714.0,,
2_S2,09/05/2023,09:53:56.100,-0.063,0.000,0.938,,,,,
2_S2,09/05/2023,09:53:56.200,-0.125,-0.063,1.000,,,,,
2_S2,09/05/2023,09:53:56.300,-0.188,-0.125,1.000,,,,,
2_S2,09/05/2023,09:53:56.400,-0.063,-0.125,0.938,,,,,
2_S2,09/05/2023,09:53:56.500,-0.125,-0.188,0.938,-2220.0,600.0,1933.5,,
2_S2,09/05/2023,09:53:56.600,-0.188,-0.250,1.000,,,,,
2_S2,09/05/2023,09:53:56.700,-0.188,-0.250,0.938,,,,,
2_S2,09/05/2023,09:53:56.800,-0.188,-0.188,0.938,,,,,
2_S2,09/05/2023,09:53:56.900,-0.313,-0.313,0.938,,,,,
2_S2,09/05/2023,09:53:57.000,-0.313,-0.250,0.938,-7366.5,-1752.0,6861.0,,
2_S2,09/05/2023,09:53:57.100,-0.375,-0.250,0.938,,,,,
2_S2,09/05/2023,09:53:57.200,-0.313,-0.188,1.000,,,,,
2_S2,09/05/2023,09:53:57.300,-0.313,-0.188,0.938,,,,,
2_S2,09/05/2023,09:53:57.400,-0.188,0.000,1.000,,,,,
2_S2,09/05/2023,09:53:57.500,-0.125,0.063,1.000,-1732.5,517.5,951.0,,
2_S2,09/05/2023,09:53:57.600,-0.188,0.063,1.125,,,,,
2_S2,09/05/2023,09:53:57.700,-0.125,0.000,1.063,,,,,
2_S2,09/05/2023,09:53:57.800,-0.063,-0.063,0.938,,,,,
2_S2,09/05/2023,09:53:57.900,-0.063,-0.063,1.000,,,,,
2_S2,09/05/2023,09:53:58.000,-0.063,-0.188,0.938,-925.5,307.5,658.5,,
2_S2,09/05/2023,09:53:58.100,0.000,-0.063,1.000,,,,,
2_S2,09/05/2023,09:53:58.200,0.000,-0.125,0.938,,,,,
2_S2,09/05/2023,09:53:58.300,-0.063,-0.125,1.000,,,,,
2_S2,09/05/2023,09:53:58.400,-0.063,-0.125,1.063,,,,,
2_S2,09/05/2023,09:53:58.500,-0.125,-0.125,1.000,-928.5,297.0,642.0,,
2_S2,09/05/2023,09:53:58.600,-0.063,-0.125,0.938,,,,,
2_S2,09/05/2023,09:53:58.700,-0.063,0.000,1.063,,,,,
2_S2,09/05/2023,09:53:58.800,0.000,0.063,1.000,,,,,
2_S2,09/05/2023,09:53:58.900,-0.188,-0.063,1.000,,,,,
2_S2,09/05/2023,09:53:59.000,-0.063,-0.063,1.063,-1129.5,321.0,642.0,,
2_S2,09/05/2023,09:53:59.100,-0.063,-0.063,1.063,,,,,
2_S2,09/05/2023,09:53:59.200,-0.063,-0.113,0.963,,,,,
2_S2,09/05/2023,09:53:59.300,-0.063,-0.213,0.982,,,,,
2_S2,09/05/2023,09:53:59.400,-0.063,-0.175,1.000,,,,,
2_S2,09/05/2023,09:53:59.500,-0.031,-0.125,1.000,-1255.5,597.0,2280.0,,
2_S2,09/05/2023,09:53:59.600,-0.025,-0.125,0.975,,,,,
2_S2,09/05/2023,09:53:59.700,-0.063,-0.125,0.957,,,,,
2_S2,09/05/2023,09:53:59.800,-0.088,-0.150,1.013,,,,,
2_S2,09/05/2023,09:53:59.900,-0.188,-0.250,1.063,,,,,
2_S2,09/05/2023,09:54:00.000,-0.188,-0.125,1.063,-2790.0,-1386.0,7557.0,,
2_S2,09/05/2023,09:54:00.100,-0.188,-0.125,1.000,,,,,
2_S2,09/05/2023,09:54:00.200,-0.188,-0.125,1.000,,,,,
2_S2,09/05/2023,09:54:00.300,-0.188,-0.188,0.938,,,,,
2_S2,09/05/2023,09:54:00.400,-0.188,-0.125,1.000,,,,,
2_S2,09/05/2023,09:54:00.500,-0.188,-0.188,1.000,-5515.5,-7087.5,11326.5,,
2_S2,09/05/2023,09:54:00.600,-0.313,-0.188,1.000,,,,,
2_S2,09/05/2023,09:54:00.700,-0.313,-0.250,1.063,,,,,
2_S2,09/05/2023,09:54:00.800,-0.313,-0.313,0.938,,,,,
2_S2,09/05/2023,09:54:00.900,-0.375,-0.188,0.938,,,,,
2_S2,09/05/2023,09:54:01.000,-0.250,0.000,1.000,-2205.0,-4938.0,9544.5,,
2_S2,09/05/2023,09:54:01.100,-0.188,-0.125,0.938,,,,,
2_S2,09/05/2023,09:54:01.200,-0.313,0.000,1.000,,,,,
2_S2,09/05/2023,09:54:01.300,-0.188,-0.063,1.000,,,,,
2_S2,09/05/2023,09:54:01.400,-0.188,-0.063,0.938,,,,,
2_S2,09/05/2023,09:54:01.500,0.000,0.188,0.938,-1419.0,522.0,709.5,,
2_S2,09/05/2023,09:54:01.600,-0.063,0.250,0.938,,,,,
2_S2,09/05/2023,09:54:01.700,0.000,0.375,1.000,,,,,
2_S2,09/05/2023,09:54:01.800,0.000,0.313,1.000,,,,,
2_S2,09/05/2023,09:54:01.900,-0.063,0.063,0.938,,,,,
2_S2,09/05/2023,09:54:02.000,-0.063,0.000,1.063,-2298.0,727.5,-435.0,,
2_S2,09/05/2023,09:54:02.100,-0.063,0.125,0.938,,,,,
2_S2,09/05/2023,09:54:02.200,-0.188,0.000,1.000,,,,,
2_S2,09/05/2023,09:54:02.300,-0.125,-0.125,1.000,,,,,
2_S2,09/05/2023,09:54:02.400,-0.188,-0.063,1.000,,,,,
2_S2,09/05/2023,09:54:02.500,-0.250,-0.125,0.938,234.0,-97.5,-2698.5,,
2_S2,09/05/2023,09:54:02.600,-0.125,-0.125,1.063,,,,,
2_S2,09/05/2023,09:54:02.700,-0.188,-0.063,0.938,,,,,
2_S2,09/05/2023,09:54:02.800,-0.250,-0.188,0.938,,,,,
2_S2,09/05/2023,09:54:02.900,-0.375,-0.313,0.938,,,,,
2_S2,09/05/2023,09:54:03.000,-0.313,-0.250,0.938,-2260.5,387.0,-4176.0,,
2_S2,09/05/2023,09:54:03.100,-0.375,-0.313,0.938,,,,,
2_S2,09/05/2023,09:54:03.200,-0.375,-0.313,0.938,,,,,
2_S2,09/05/2023,09:54:03.300,-0.375,-0.313,0.875,,,,,
2_S2,09/05/2023,09:54:03.400,-0.438,-0.250,0.938,,,,,
2_S2,09/05/2023,09:54:03.500,-0.375,-0.188,0.875,-10195.5,-1554.0,-8565.0,,
2_S2,09/05/2023,09:54:03.600,-0.438,-0.188,1.000,,,,,
2_S2,09/05/2023,09:54:03.700,-0.375,-0.125,1.063,,,,,
2_S2,09/05/2023,09:54:03.800,-0.313,-0.063,0.938,,,,,
2_S2,09/05/2023,09:54:03.900,-0.250,-0.125,0.938,,,,,
2_S2,09/05/2023,09:54:04.000,-0.250,0.000,1.000,-4377.0,1915.5,1360.5,,
2_S2,09/05/2023,09:54:04.100,-0.250,0.056,1.000,,,,,
2_S2,09/05/2023,09:54:04.200,-0.200,0.063,1.000,,,,,
2_S2,09/05/2023,09:54:04.300,-0.188,0.063,1.000,,,,,
2_S2,09/05/2023,09:54:04.400,-0.188,0.063,0.963,,,,,
2_S2,09/05/2023,09:54:04.500,-0.188,0.063,1.000,-1126.5,502.5,759.0,,
2_S2,09/05/2023,09:54:04.600,-0.163,0.088,1.013,,,,,
2_S2,09/05/2023,09:54:04.700,-0.106,0.106,0.957,,,,,
2_S2,09/05/2023,09:54:04.800,-0.075,0.063,1.000,,,,,
2_S2,09/05/2023,09:54:04.900,-0.125,0.063,1.000,,,,,
2_S2,09/05/2023,09:54:05.000,-0.125,0.063,1.000,-927.0,307.5,594.0,,
2_S2,09/05/2023,09:54:05.100,-0.125,0.063,1.000,,,,,
2_S2,09/05/2023,09:54:05.200,-0.125,0.063,0.938,,,,,
2_S2,09/05/2023,09:54:05.300,-0.125,0.125,1.000,,,,,
2_S2,09/05/2023,09:54:05.400,-0.125,0.125,1.063,,,,,
2_S2,09/05/2023,09:54:05.500,-0.188,0.063,1.000,-1155.0,378.0,223.5,,
2_S2,09/05/2023,09:54:05.600,-0.188,0.000,1.000,,,,,
2_S2,09/05/2023,09:54:05.700,-0.125,0.000,1.000,,,,,
2_S2,09/05/2023,09:54:05.800,-0.188,0.000,1.000,,,,,
2_S2,09/05/2023,09:54:05.900,-0.188,0.000,1.000,,,,,
2_S2,09/05/2023,09:54:06.000,-0.188,0.063,1.000,-1308.0,475.5,208.5,,
2_S2,09/05/2023,09:54:06.100,-0.125,0.000,1.000,,,,,
2_S2,09/05/2023,09:54:06.200,-0.188,0.063,0.938,,,,,
2_S2,09/05/2023,09:54:06.300,-0.250,0.063,1.000,,,,,
2_S2,09/05/2023,09:54:06.400,-0.188,0.063,1.000,,,,,
2_S2,09/05/2023,09:54:06.500,-0.188,0.063,1.000,-1048.5,288.0,385.5,,
2_S2,09/05/2023,09:54:06.600,-0.188,0.000,0.938,,,,,
2_S2,09/05/2023,09:54:06.700,-0.188,0.063,1.063,,,,,
2_S2,09/05/2023,09:54:06.800,-0.250,0.000,1.000,,,,,
2_S2,09/05/2023,09:54:06.900,-0.188,0.063,1.000,,,,,
2_S2,09/05/2023,09:54:07.000,-0.125,0.063,0.938,-1156.5,366.0,235.5,,
2_S2,09/05/2023,09:54:07.100,-0.188,0.063,1.000,,,,,
2_S2,09/05/2023,09:54:07.200,-0.063,0.063,0.938,,,,,
2_S2,09/05/2023,09:54:07.300,-0.125,0.125,1.000,,,,,
2_S2,09/05/2023,09:54:07.400,-0.125,0.063,1.000,,,,,
2_S2,09/05/2023,09:54:07.500,-0.125,0.000,1.000,-1165.5,363.0,223.5,,
2_S2,09/05/2023,09:54:07.600,-0.125,0.125,1.000,,,,,
2_S2,09/05/2023,09:54:07.700,-0.188,0.125,1.000,,,,,
2_S2,09/05/2023,09:54:07.800,-0.125,0.063,1.000,,,,,
2_S2,09/05/2023,09:54:07.900,-0.125,0.063,1.000,,,,,
2_S2,09/05/2023,09:54:08.000,-0.188,0.063,1.000,-1150.5,372.0,219.0,,
2_S2,09/05/2023,09:54:08.100,-0.125,0.063,0.938,,,,,
2_S2,09/05/2023,09:54:08.200,-0.125,0.125,0.938,,,,,
2_S2,09/05/2023,09:54:08.300,-0.125,0.125,1.063,,,,,
2_S2,09/05/2023,09:54:08.400,-0.125,0.063,1.000,,,,,
2_S2,09/05/2023,09:54:08.500,-0.188,0.063,0.938,-1164.0,333.0,223.5,,
2_S2,09/05/2023,09:54:08.600,-0.125,0.063,1.000,,,,,
2_S2,09/05/2023,09:54:08.700,-0.125,0.063,1.000,,,,,
2_S2,09/05/2023,09:54:08.800,-0.125,0.188,1.000,,,,,
2_S2,09/05/2023,09:54:08.900,-0.063,0.063,0.938,,,,,
2_S2,09/05/2023,09:54:09.000,-0.125,0.125,1.000,-1161.0,354.0,214.5,,
2_S2,09/05/2023,09:54:09.100,-0.181,0.125,1.000,,,,,
2_S2,09/05/2023,09:54:09.200,-0.138,0.175,1.000,,,,,
2_S2,09/05/2023,09:54:09.300,-0.081,0.144,1.044,,,,,
2_S2,09/05/2023,09:54:09.400,-0.025,0.238,0.950,,,,,
2_S2,09/05/2023,09:54:09.500,-0.031,0.281,0.969,-1179.0,303.0,231.0,,
2_S2,09/05/2023,09:54:09.600,-0.088,0.225,1.013,,,,,
2_S2,09/05/2023,09:54:09.700,-0.144,0.150,0.957,,,,,
2_S2,09/05/2023,09:54:09.800,-0.213,0.050,1.025,,,,,
2_S2,09/05/2023,09:54:09.900,-0.313,0.000,1.125,,,,,
2_S2,09/05/2023,09:54:10.000,-0.250,0.000,1.063,-1089.0,373.5,285.0,,
2_S2,09/05/2023,09:54:10.100,-0.188,0.063,0.938,,,,,
2_S2,09/05/2023,09:54:10.200,-0.188,0.125,1.063,,,,,
2_S2,09/05/2023,09:54:10.300,-0.188,0.000,0.938,,,,,
2_S2,09/05/2023,09:54:10.400,-0.188,-0.063,0.938,,,,,
2_S2,09/05/2023,09:54:10.500,-0.188,-0.063,1.000,-616.5,295.5,685.5,,
2_S2,09/05/2023,09:54:10.600,0.000,0.188,0.813,,,,,
2_S2,09/05/2023,09:54:10.700,0.000,0.188,0.938,,,,,
2_S2,09/05/2023,09:54:10.800,-0.063,0.125,1.000,,,,,
2_S2,09/05/2023,09:54:10.900,-0.188,0.188,1.188,,,,,
2_S2,09/05/2023,09:54:11.000,-0.188,0.063,1.000,-1047.0,339.0,373.5,,
2_S2,09/05/2023,09:54:11.100,-0.188,0.063,1.000,,,,,
2_S2,09/05/2023,09:54:11.200,-0.188,0.063,1.000,,,,,
2_S2,09/05/2023,09:54:11.300,-0.250,0.000,1.000,,,,,
2_S2,09/05/2023,09:54:11.400,-0.188,-0.375,0.875,,,,,
2_S2,09/05/2023,09:54:11.500,-0.313,-0.188,1.063,-2713.5,778.5,-166.5,,
2_S2,09/05/2023,09:54:11.600,-0.313,-0.250,1.000,,,,,
2_S2,09/05/2023,09:54:11.700,-0.250,-0.250,0.938,,,,,
2_S2,09/05/2023,09:54:11.800,-0.313,-0.188,1.000,,,,,
2_S2,09/05/2023,09:54:11.900,-0.313,-0.063,0.688,,,,,
2_S2,09/05/2023,09:54:12.000,-0.250,-0.188,0.875,-2554.5,558.0,-2614.5,,
2_S2,09/05/2023,09:54:12.100,-0.438,-0.375,1.125,,,,,
2_S2,09/05/2023,09:54:12.200,-0.313,0.000,1.000,,,,,
2_S2,09/05/2023,09:54:12.300,-0.250,-0.063,1.000,,,,,
2_S2,09/05/2023,09:54:12.400,-0.188,0.000,1.000,,,,,
2_S2,09/05/2023,09:54:12.500,-0.125,0.125,0.938,-675.0,279.0,703.5,,
2_S2,09/05/2023,09:54:12.600,-0.188,0.063,1.000,,,,,
2_S2,09/05/2023,09:54:12.700,-0.250,-0.375,1.125,,,,,
2_S2,09/05/2023,09:54:12.800,-0.250,-0.375,0.938,,,,,
2_S2,09/05/2023,09:54:12.900,-0.125,-0.438,0.750,,,,,
2_S2,09/05/2023,09:54:13.000,-0.125,-0.438,0.750,-864.0,417.0,652.5,,
2_S2,09/05/2023,09:54:13.100,-0.188,-0.438,1.000,,,,,
2_S2,09/05/2023,09:54:13.200,-0.188,-0.313,0.938,,,,,
2_S2,09/05/2023,09:54:13.300,-0.188,0.000,0.938,,,,,
2_S2,09/05/2023,09:54:13.400,-0.188,0.125,1.125,,,,,
2_S2,09/05/2023,09:54:13.500,-0.188,-0.125,0.938,-853.5,346.5,861.0,,
2_S2,09/05/2023,09:54:13.600,-0.188,-0.063,1.000,,,,,
2_S2,09/05/2023,09:54:13.700,-0.250,-0.250,1.000,,,,,
2_S2,09/05/2023,09:54:13.800,-0.313,-0.188,0.938,,,,,
2_S2,09/05/2023,09:54:13.900,-0.313,-0.188,0.938,,,,,
2_S2,09/05/2023,09:54:14.000,-0.313,-0.313,1.000,-3978.0,-2848.5,9579.0,,
2_S2,09/05/2023,09:54:14.100,-0.313,-0.188,0.875,,,,,
2_S2,09/05/2023,09:54:14.200,-0.500,-0.375,0.875,,,,,
2_S2,09/05/2023,09:54:14.300,-0.500,-0.375,0.938,,,,,
2_S2,09/05/2023,09:54:14.400,-0.313,-0.188,0.938,,,,,
2_S2,09/05/2023,09:54:14.500,-0.250,-0.063,0.938,4369.5,-4984.5,6463.5,,
2_S2,09/05/2023,09:54:14.600,-0.188,0.000,0.938,,,,,
2_S2,09/05/2023,09:54:14.700,-0.250,0.000,0.938,,,,,
2_S2,09/05/2023,09:54:14.800,-0.188,0.063,1.000,,,,,
2_S2,09/05/2023,09:54:14.900,-0.250,0.063,1.000,,,,,
2_S2,09/05/2023,09:54:15.000,-0.250,0.125,1.000,-1296.0,456.0,318.0,,
2_S2,09/05/2023,09:54:15.100,-0.250,0.013,0.944,,,,,
2_S2,09/05/2023,09:54:15.200,-0.400,-0.150,0.988,,,,,
2_S2,09/05/2023,09:54:15.300,-0.394,-0.188,1.044,,,,,
2_S2,09/05/2023,09:54:15.400,-0.413,-0.225,0.988,,,,,
2_S2,09/05/2023,09:54:15.500,-0.406,-0.219,0.969,684.0,609.0,-6930.0,,
2_S2,09/05/2023,09:54:15.600,-0.325,-0.188,1.000,,,,,
2_S2,09/05/2023,09:54:15.700,-0.344,-0.150,1.113,,,,,
2_S2,09/05/2023,09:54:15.800,-0.500,-0.075,1.300,,,,,
2_S2,09/05/2023,09:54:15.900,-0.250,-0.125,1.000,,,,,
2_S2,09/05/2023,09:54:16.000,-0.188,0.000,0.813,540.0,523.5,-6919.5,,
2_S2,09/05/2023,09:54:16.100,-0.250,-0.188,0.938,,,,,
2_S2,09/05/2023,09:54:16.200,-0.188,-0.375,1.000,,,,,
2_S2,09/05/2023,09:54:16.300,-0.438,-0.375,0.938,,,,,
2_S2,09/05/2023,09:54:16.400,-0.438,-0.438,0.938,,,,,
2_S2,09/05/2023,09:54:16.500,-0.375,-0.375,0.813,-3205.5,247.5,-6150.0,,
2_S2,09/05/2023,09:54:16.600,-0.375,-0.313,0.875,,,,,
2_S2,09/05/2023,09:54:16.700,-0.313,-0.125,0.938,,,,,
2_S2,09/05/2023,09:54:16.800,-0.188,-0.063,1.000,,,,,
2_S2,09/05/2023,09:54:16.900,-0.125,0.000,1.000,,,,,
2_S2,09/05/2023,09:54:17.000,-0.063,0.000,1.000,-1095.0,324.0,246.0,,
2_S2,09/05/2023,09:54:17.100,-0.063,0.063,1.063,,,,,
2_S2,09/05/2023,09:54:17.200,-0.188,0.063,1.250,,,,,
2_S2,09/05/2023,09:54:17.300,-0.125,0.125,1.063,,,,,
2_S2,09/05/2023,09:54:17.400,-0.188,0.000,1.000,,,,,
2_S2,09/05/2023,09:54:17.500,-0.125,0.063,1.000,-693.0,2913.0,6402.0,,
2_S2,09/05/2023,09:54:17.600,-0.125,0.063,1.063,,,,,
2_S2,09/05/2023,09:54:17.700,-0.250,0.000,1.000,,,,,
2_S2,09/05/2023,09:54:17.800,-0.188,0.000,0.938,,,,,
2_S2,09/05/2023,09:54:17.900,-0.188,0.000,1.063,,,,,
2_S2,09/05/2023,09:54:18.000,-0.250,0.000,1.063,-1179.0,381.0,576.0,,
2_S2,09/05/2023,09:54:18.100,-0.188,-0.063,1.000,,,,,
2_S2,09/05/2023,09:54:18.200,-0.188,0.000,1.063,,,,,
2_S2,09/05/2023,09:54:18.300,-0.125,0.000,1.000,,,,,
2_S2,09/05/2023,09:54:18.400,-0.250,-0.063,1.063,,,,,
2_S2,09/05/2023,09:54:18.500,-0.125,0.125,1.063,-1189.5,414.0,211.5,,
2_S2,09/05/2023,09:54:18.600,-0.250,-0.063,1.000,,,,,
2_S2,09/05/2023,09:54:18.700,-0.250,-0.063,0.938,,,,,
2_S2,09/05/2023,09:54:18.800,-0.188,0.000,1.000,,,,,
2_S2,09/05/2023,09:54:18.900,-0.188,-0.063,1.000,,,,,
2_S2,09/05/2023,09:54:19.000,-0.188,-0.125,1.000,-1165.5,423.0,234.0,,
2_S2,09/05/2023,09:54:19.100,-0.250,-0.125,1.000,,,,,
2_S2,09/05/2023,09:54:19.200,-0.250,-0.063,1.000,,,,,
2_S2,09/05/2023,09:54:19.300,-0.125,0.000,1.000,,,,,
2_S2,09/05/2023,09:54:19.400,-0.125,0.000,1.000,,,,,
2_S2,09/05/2023,09:54:19.500,-0.063,0.063,1.000,-1198.5,399.0,226.5,,
2_S2,09/05/2023,09:54:19.600,-0.063,0.000,0.938,,,,,
2_S2,09/05/2023,09:54:19.700,-0.125,0.000,1.000,,,,,
2_S2,09/05/2023,09:54:19.800,-0.125,0.000,1.000,,,,,
2_S2,09/05/2023,09:54:19.900,-0.125,0.000,1.000,,,,,
2_S2,09/05/2023,09:54:20.000,-0.250,-0.063,1.000,-1201.5,411.0,225.0,,
2_S2,09/05/2023,09:54:20.100,-0.363,-0.119,1.057,,,,,
2_S2,09/05/2023,09:54:20.200,-0.275,-0.075,0.963,,,,,
2_S2,09/05/2023,09:54:20.300,-0.163,0.069,0.938,,,,,
2_S2,09/05/2023,09:54:20.400,-0.163,0.050,0.975,,,,,
2_S2,09/05/2023,09:54:20.500,-0.156,0.000,1.000,-1072.5,388.5,378.0,,
2_S2,09/05/2023,09:54:20.600,-0.100,0.050,1.000,,,,,
2_S2,09/05/2023,09:54:20.700,-0.100,0.088,1.000,,,,,
2_S2,09/05/2023,09:54:20.800,-0.200,-0.013,0.988,,,,,
2_S2,09/05/2023,09:54:20.900,-0.250,-0.063,0.938,,,,,
2_S2,09/05/2023,09:54:21.000,-0.313,-0.125,0.938,-4797.0,1054.5,1591.5,,
2_S2,09/05/2023,09:54:21.100,-0.438,-0.250,1.000,,,,,
2_S2,09/05/2023,09:54:21.200,-0.313,0.125,1.000,,,,,
2_S2,09/05/2023,09:54:21.300,-0.313,-0.188,0.938,,,,,
2_S2,09/05/2023,09:54:21.400,-0.313,-0.125,0.938,,,,,
2_S2,09/05/2023,09:54:21.500,-0.313,-0.313,0.938,-19732.5,-8556.0,-5685.0,,
2_S2,09/05/2023,09:54:21.600,-0.250,-0.125,0.938,,,,,
2_S2,09/05/2023,09:54:21.700,-0.188,-0.063,1.000,,,,,
2_S2,09/05/2023,09:54:21.800,-0.188,-0.063,1.000,,,,,
2_S2,09/05/2023,09:54:21.900,-0.125,0.000,1.000,,,,,
2_S2,09/05/2023,09:54:22.000,-0.063,0.000,1.000,-1242.0,474.0,882.0,,
2_S2,09/05/2023,09:54:22.100,-0.125,0.000,1.000,,,,,
2_S2,09/05/2023,09:54:22.200,-0.125,0.000,0.938,,,,,
2_S2,09/05/2023,09:54:22.300,-0.188,-0.063,1.000,,,,,
2_S2,09/05/2023,09:54:22.400,-0.188,-0.125,0.938,,,,,
2_S2,09/05/2023,09:54:22.500,-0.250,-0.063,1.000,-784.5,493.5,2973.0,,
2_S2,09/05/2023,09:54:22.600,-0.188,-0.063,1.000,,,,,
2_S2,09/05/2023,09:54:22.700,-0.250,0.000,0.938,,,,,
2_S2,09/05/2023,09:54:22.800,-0.375,-0.125,1.063,,,,,
2_S2,09/05/2023,09:54:22.900,-0.313,-0.125,1.000,,,,,
2_S2,09/05/2023,09:54:23.000,-0.250,-0.063,0.938,-1090.5,-3201.0,9312.0,,
2_S2,09/05/2023,09:54:23.100,-0.250,-0.125,1.000,,,,,
2_S2,09/05/2023,09:54:23.200,-0.188,-0.063,1.000,,,,,
2_S2,09/05/2023,09:54:23.300,-0.125,-0.063,0.938,,,,,
2_S2,09/05/2023,09:54:23.400,-0.188,0.000,1.000,,,,,
2_S2,09/05/2023,09:54:23.500,-0.125,0.000,1.000,-1552.5,684.0,1261.5,,
2_S2,09/05/2023,09:54:23.600,-0.125,-0.063,1.000,,,,,
2_S2,09/05/2023,09:54:23.700,-0.125,0.000,1.000,,,,,
2_S2,09/05/2023,09:54:23.800,-0.063,0.000,0.938,,,,,
2_S2,09/05/2023,09:54:23.900,-0.125,0.000,1.063,,,,,
2_S2,09/05/2023,09:54:24.000,-0.188,-0.063,1.063,-1060.5,295.5,355.5,,
2_S2,09/05/2023,09:54:24.100,-0.125,-0.063,0.938,,,,,
2_S2,09/05/2023,09:54:24.200,-0.125,0.000,1.063,,,,,
2_S2,09/05/2023,09:54:24.300,-0.125,0.000,1.063,,,,,
2_S2,09/05/2023,09:54:24.400,-0.188,0.000,1.000,,,,,
2_S2,09/05/2023,09:54:24.500,-0.125,0.000,0.938,-1126.5,364.5,240.0,,
2_S2,09/05/2023,09:54:24.600,-0.188,0.000,1.000,,,,,
2_S2,09/05/2023,09:54:24.700,-0.188,-0.063,1.063,,,,,
2_S2,09/05/2023,09:54:24.800,-0.125,-0.063,1.000,,,,,
2_S2,09/05/2023,09:54:24.900,-0.125,-0.063,0.938,,,,,
2_S2,09/05/2023,09:54:25.000,-0.125,0.000,0.938,-1108.5,367.5,433.5,,
2_S2,09/05/2023,09:54:25.100,-0.125,0.000,1.107,,,,,
2_S2,09/05/2023,09:54:25.200,-0.125,0.000,1.075,,,,,
2_S2,09/05/2023,09:54:25.300,-0.125,0.000,1.063,,,,,
2_S2,09/05/2023,09:54:25.400,-0.163,-0.038,0.988,,,,,
2_S2,09/05/2023,09:54:25.500,-0.188,-0.063,0.938,-559.5,361.5,916.5,,
2_S2,09/05/2023,09:54:25.600,-0.188,-0.113,0.913,,,,,
2_S2,09/05/2023,09:54:25.700,-0.188,-0.150,0.894,,,,,
2_S2,09/05/2023,09:54:25.800,-0.163,-0.050,0.938,,,,,
2_S2,09/05/2023,09:54:25.900,-0.063,0.000,0.938,,,,,
2_S2,09/05/2023,09:54:26.000,-0.063,0.063,1.000,-657.0,337.5,871.5,,
2_S2,09/05/2023,09:54:26.100,0.000,0.000,0.938,,,,,
2_S2,09/05/2023,09:54:26.200,-0.063,0.000,0.875,,,,,
2_S2,09/05/2023,09:54:26.300,-0.188,-0.063,1.063,,,,,
2_S2,09/05/2023,09:54:26.400,-0.125,-0.125,1.000,,,,,
2_S2,09/05/2023,09:54:26.500,-0.125,-0.125,1.000,-649.5,346.5,876.0,,
2_S2,09/05/2023,09:54:26.600,0.000,-0.938,2.501,,,,,
2_S2,09/05/2023,09:54:26.700,-0.188,-0.063,0.875,,,,,
2_S2,09/05/2023,09:54:26.800,-0.250,-0.125,1.000,,,,,
2_S2,09/05/2023,09:54:26.900,-0.188,-0.063,0.938,,,,,
2_S2,09/05/2023,09:54:27.000,-0.250,-0.125,1.000,-535.5,408.0,1083.0,,
2_S2,09/05/2023,09:54:27.100,-0.188,-0.063,0.938,,,,,
2_S2,09/05/2023,09:54:27.200,-0.188,0.000,1.000,,,,,
2_S2,09/05/2023,09:54:27.300,-1.063,-0.563,0.500,,,,,
2_S2,09/05/2023,09:54:27.400,-0.125,-0.063,0.938,,,,,
2_S2,09/05/2023,09:54:27.500,-0.313,-0.125,1.063,-579.0,1378.5,2961.0,,
2_S2,09/05/2023,09:54:27.600,-0.313,0.000,1.000,,,,,
2_S2,09/05/2023,09:54:27.700,-0.250,-0.063,1.000,,,,,
2_S2,09/05/2023,09:54:27.800,-0.313,-0.063,1.000,,,,,
2_S2,09/05/2023,09:54:27.900,-0.313,-0.063,1.000,,,,,
2_S2,09/05/2023,09:54:28.000,-0.250,0.000,1.000,-1071.0,1105.5,2056.5,,
2_S2,09/05/2023,09:54:28.100,-0.125,0.000,1.000,,,,,
2_S2,09/05/2023,09:54:28.200,-0.063,0.000,1.063,,,,,
2_S2,09/05/2023,09:54:28.300,-0.500,-0.438,0.813,,,,,
2_S2,09/05/2023,09:54:28.400,-0.250,-0.125,1.063,,,,,
2_S2,09/05/2023,09:54:28.500,-0.313,-0.063,0.875,-1572.0,189.0,-1857.0,,
2_S2,09/05/2023,09:54:28.600,-0.250,-0.063,1.000,,,,,
2_S2,09/05/2023,09:54:28.700,-0.250,-0.063,0.938,,,,,
2_S2,09/05/2023,09:54:28.800,-0.188,-0.063,1.000,,,,,
2_S2,09/05/2023,09:54:28.900,-0.313,-0.063,0.875,,,,,
2_S2,09/05/2023,09:54:29.000,-0.188,-0.125,1.000,234.0,-127.5,-2400.0,,
2_S2,09/05/2023,09:54:29.100,-0.313,-0.188,0.875,,,,,
2_S2,09/05/2023,09:54:29.200,-0.313,-0.188,0.938,,,,,
2_S2,09/05/2023,09:54:29.300,-0.250,-0.188,1.000,,,,,
2_S2,09/05/2023,09:54:29.400,-0.125,0.063,1.000,,,,,
2_S2,09/05/2023,09:54:29.500,-0.188,-0.063,0.938,693.0,493.5,-4758.0,,
2_S2,09/05/2023,09:54:29.600,-0.375,-0.125,1.125,,,,,
2_S2,09/05/2023,09:54:29.700,-0.250,-0.063,0.938,,,,,
2_S2,09/05/2023,09:54:29.800,-0.313,-0.188,1.000,,,,,
2_S2,09/05/2023,09:54:29.900,-0.250,-0.188,0.938,,,,,
2_S2,09/05/2023,09:54:30.000,-0.375,-0.125,1.000,-10365.0,-1996.5,-6252.0,,
2_S2,09/05/2023,09:54:30.100,-0.313,-0.063,0.938,,,,,
2_S2,09/05/2023,09:54:30.200,-0.250,-0.063,0.938,,,,,
2_S2,09/05/2023,09:54:30.300,-0.313,-0.063,1.000,,,,,
2_S2,09/05/2023,09:54:30.400,-0.313,-0.063,1.000,,,,,
2_S2,09/05/2023,09:54:30.500,-0.313,0.000,1.063,-1447.5,694.5,1059.0,,
2_S2,09/05/2023,09:54:30.600,-0.125,0.063,1.000,,,,,
2_S2,09/05/2023,09:54:30.700,-0.125,0.000,0.938,,,,,
2_S2,09/05/2023,09:54:30.800,-0.188,-0.063,1.000,,,,,
2_S2,09/05/2023,09:54:30.900,-0.313,-0.125,1.000,,,,,
2_S2,09/05/2023,09:54:31.000,-0.563,-0.250,1.438,2311.5,-4848.0,8151.0,,
2_S2,09/05/2023,09:54:31.100,-0.281,-0.138,0.988,,,,,
2_S2,09/05/2023,09:54:31.200,-0.150,-0.125,0.988,,,,,
2_S2,09/05/2023,09:54:31.300,-0.169,-0.125,1.044,,,,,
2_S2,09/05/2023,09:54:31.400,-0.150,-0.163,1.025,,,,,
2_S2,09/05/2023,09:54:31.500,-0.156,-0.094,0.969,-567.0,-26613.0,10398.0,,
2_S2,09/05/2023,09:54:31.600,-0.188,-0.050,0.963,,,,,
2_S2,09/05/2023,09:54:31.700,-0.188,-0.106,1.000,,,,,
2_S2,09/05/2023,09:54:31.800,-0.175,-0.050,1.000,,,,,
2_S2,09/05/2023,09:54:31.900,-0.125,0.000,1.000,,,,,
2_S2,09/05/2023,09:54:32.000,-0.125,0.000,1.000,-1056.0,228.0,2373.0,,
2_S2,09/05/2023,09:54:32.100,-0.125,0.000,1.000,,,,,
2_S2,09/05/2023,09:54:32.200,-0.063,0.063,1.000,,,,,
2_S2,09/05/2023,09:54:32.300,0.000,0.063,1.000,,,,,
2_S2,09/05/2023,09:54:32.400,-0.125,0.000,1.000,,,,,
2_S2,09/05/2023,09:54:32.500,-0.125,0.000,1.000,-1609.5,480.0,529.5,,
2_S2,09/05/2023,09:54:32.600,-0.125,0.063,0.938,,,,,
2_S2,09/05/2023,09:54:32.700,-0.125,0.000,0.938,,,,,
2_S2,09/05/2023,09:54:32.800,0.000,0.250,0.938,,,,,
2_S2,09/05/2023,09:54:32.900,0.000,0.313,0.938,,,,,
2_S2,09/05/2023,09:54:33.000,-0.125,0.250,1.000,-1201.5,426.0,885.0,,
2_S2,09/05/2023,09:54:33.100,-0.125,0.375,1.063,,,,,
2_S2,09/05/2023,09:54:33.200,0.063,0.250,0.938,,,,,
2_S2,09/05/2023,09:54:33.300,-0.500,0.875,0.750,,,,,
2_S2,09/05/2023,09:54:33.400,-0.313,0.688,0.750,,,,,
2_S2,09/05/2023,09:54:33.500,-0.250,0.625,0.750,-1086.0,106.5,201.0,,
2_S2,09/05/2023,09:54:33.600,-0.125,0.625,0.688,,,,,
2_S2,09/05/2023,09:54:33.700,-0.125,0.625,0.750,,,,,
2_S2,09/05/2023,09:54:33.800,-0.125,0.563,0.750,,,,,
2_S2,09/05/2023,09:54:33.900,-0.125,0.500,0.813,,,,,
2_S2,09/05/2023,09:54:34.000,0.000,0.500,0.938,-1162.5,160.5,175.5,,
2_S2,09/05/2023,09:54:34.100,-0.063,0.563,0.875,,,,,
2_S2,09/05/2023,09:54:34.200,0.000,0.500,0.875,,,,,
2_S2,09/05/2023,09:54:34.300,-0.125,0.438,0.688,,,,,
2_S2,09/05/2023,09:54:34.400,0.000,0.438,0.875,,,,,
2_S2,09/05/2023,09:54:34.500,0.250,0.313,0.938,-1207.5,226.5,325.5,,
2_S2,09/05/2023,09:54:34.600,0.125,0.250,0.938,,,,,
2_S2,09/05/2023,09:54:34.700,0.125,0.188,0.938,,,,,
2_S2,09/05/2023,09:54:34.800,0.125,0.250,0.938,,,,,
2_S2,09/05/2023,09:54:34.900,0.063,0.313,0.938,,,,,
2_S2,09/05/2023,09:54:35.000,0.125,0.250,0.938,-1276.5,282.0,417.0,,
2_S2,09/05/2023,09:54:35.100,0.125,0.250,0.938,,,,,
2_S2,09/05/2023,09:54:35.200,0.000,0.313,1.000,,,,,
2_S2,09/05/2023,09:54:35.300,0.000,0.313,0.938,,,,,
2_S2,09/05/2023,09:54:35.400,-0.125,0.500,0.813,,,,,
2_S2,09/05/2023,09:54:35.500,0.000,0.188,0.938,-1326.0,357.0,427.5,,
2_S2,09/05/2023,09:54:35.600,0.000,-0.063,0.938,,,,,
2_S2,09/05/2023,09:54:35.700,-0.063,-0.375,0.938,,,,,
2_S2,09/05/2023,09:54:35.800,-0.063,-0.438,0.813,,,,,
2_S2,09/05/2023,09:54:35.900,0.500,1.000,0.688,,,,,
2_S2,09/05/2023,09:54:36.000,-0.063,1.000,1.000,-1437.0,211.5,595.5,,
2_S2,09/05/2023,09:54:36.100,-0.119,0.663,0.944,,,,,
2_S2,09/05/2023,09:54:36.200,0.275,0.075,0.638,,,,,
2_S2,09/05/2023,09:54:36.300,-0.063,0.813,0.869,,,,,
2_S2,09/05/2023,09:54:36.400,-0.250,1.113,0.400,,,,,
2_S2,09/05/2023,09:54:36.500,-0.188,1.032,0.125,-23899.5,-3952.5,900.0,,
2_S2,09/05/2023,09:54:36.600,-0.275,1.025,0.550,,,,,
2_S2,09/05/2023,09:54:36.700,-0.463,0.782,0.982,,,,,
2_S2,09/05/2023,09:54:36.800,-0.113,0.875,0.850,,,,,
2_S2,09/05/2023,09:54:36.900,0.938,3.876,0.500,,,,,
2_S2,09/05/2023,09:54:37.000,0.000,-1.000,0.375,-19633.5,-114.0,2767.5,,
2_S2,09/05/2023,09:54:37.100,-0.125,-0.813,0.813,,,,,
2_S2,09/05/2023,09:54:37.200,-0.063,-0.750,0.688,,,,,
2_S2,09/05/2023,09:54:37.300,-0.063,-0.500,1.000,,,,,
2_S2,09/05/2023,09:54:37.400,-0.063,-0.313,0.938,,,,,
2_S2,09/05/2023,09:54:37.500,-0.125,-0.250,1.000,-1410.0,541.5,208.5,,
2_S2,09/05/2023,09:54:37.600,-0.250,-0.188,0.938,,,,,
2_S2,09/05/2023,09:54:37.700,-0.188,-0.063,0.938,,,,,
2_S2,09/05/2023,09:54:37.800,-0.250,0.000,1.000,,,,,
2_S2,09/05/2023,09:54:37.900,-0.313,0.000,0.938,,,,,
2_S2,09/05/2023,09:54:38.000,-0.250,0.000,0.938,-1470.0,676.5,972.0,,
2_S2,09/05/2023,09:54:38.100,-0.250,-0.125,1.000,,,,,
2_S2,09/05/2023,09:54:38.200,-0.188,-0.125,0.938,,,,,
2_S2,09/05/2023,09:54:38.300,-0.250,-0.063,1.000,,,,,
2_S2,09/05/2023,09:54:38.400,-0.313,-0.063,1.000,,,,,
2_S2,09/05/2023,09:54:38.500,-0.250,-0.125,1.000,-3624.0,786.0,1192.5,,
2_S2,09/05/2023,09:54:38.600,-0.250,-0.188,0.938,,,,,
2_S2,09/05/2023,09:54:38.700,-0.375,-0.125,1.000,,,,,
2_S2,09/05/2023,09:54:38.800,-0.375,-0.188,1.000,,,,,
2_S2,09/05/2023,09:54:38.900,-0.313,-0.313,0.875,,,,,
2_S2,09/05/2023,09:54:39.000,-0.375,-0.438,0.813,-10852.5,-114.0,-612.0,,
2_S2,09/05/2023,09:54:39.100,-0.063,-0.625,1.188,,,,,
2_S2,09/05/2023,09:54:39.200,-0.250,-0.563,0.813,,,,,
2_S2,09/05/2023,09:54:39.300,-0.188,-0.500,0.813,,,,,
2_S2,09/05/2023,09:54:39.400,-0.313,-0.438,0.875,,,,,
2_S2,09/05/2023,09:54:39.500,-0.188,-0.500,0.813,-22381.5,-7155.0,4033.5,,
2_S2,09/05/2023,09:54:39.600,-0.375,-0.375,0.813,,,,,
2_S2,09/05/2023,09:54:39.700,-0.313,-0.375,0.938,,,,,
2_S2,09/05/2023,09:54:39.800,-0.125,-0.188,1.125,,,,,
2_S2,09/05/2023,09:54:39.900,0.000,-0.125,1.000,,,,,
2_S2,09/05/2023,09:54:40.000,0.000,-0.125,1.000,-921.0,382.5,600.0,,
2_S2,09/05/2023,09:54:40.100,-0.063,-0.250,0.938,,,,,
2_S2,09/05/2023,09:54:40.200,-0.063,-0.063,0.938,,,,,
2_S2,09/05/2023,09:54:40.300,-0.063,0.000,1.000,,,,,
2_S2,09/05/2023,09:54:40.400,-0.063,0.000,1.000,,,,,
2_S2,09/05/2023,09:54:40.500,-0.063,-0.063,1.000,-762.0,268.5,627.0,,
2_S2,09/05/2023,09:54:40.600,-0.125,-0.125,1.000,,,,,
2_S2,09/05/2023,09:54:40.700,-0.063,-0.125,1.000,,,,,
2_S2,09/05/2023,09:54:40.800,-0.063,0.000,1.000,,,,,
2_S2,09/05/2023,09:54:40.900,-0.188,-0.250,1.000,,,,,
2_S2,09/05/2023,09:54:41.000,-0.125,-0.188,1.000,-750.0,307.5,643.5,,
2_S2,09/05/2023,09:54:41.100,-0.125,-0.075,1.000,,,,,
2_S2,09/05/2023,09:54:41.200,-0.125,-0.113,1.000,,,,,
2_S2,09/05/2023,09:54:41.300,-0.125,-0.125,1.044,,,,,
2_S2,09/05/2023,09:54:41.400,-0.163,-0.238,0.988,,,,,
2_S2,09/05/2023,09:54:41.500,-0.188,-0.281,0.969,-1953.0,-978.0,7692.0,,
2_S2,09/05/2023,09:54:41.600,-0.163,-0.200,1.000,,,,,
2_S2,09/05/2023,09:54:41.700,-0.144,-0.238,0.982,,,,,
2_S2,09/05/2023,09:54:41.800,-0.175,-0.463,0.938,,,,,
2_S2,09/05/2023,09:54:41.900,-0.125,-0.313,0.938,,,,,
2_S2,09/05/2023,09:54:42.000,-0.125,-0.313,0.938,867.0,-27010.5,8202.0,,
2_S2,09/05/2023,09:54:42.100,-0.063,-0.375,0.875,,,,,
2_S2,09/05/2023,09:54:42.200,-0.125,-0.375,1.000,,,,,
2_S2,09/05/2023,09:54:42.300,-0.125,-0.313,1.000,,,,,
2_S2,09/05/2023,09:54:42.400,-0.063,-0.188,1.000,,,,,
2_S2,09/05/2023,09:54:42.500,0.000,-0.125,0.938,-849.0,877.5,2269.5,,
2_S2,09/05/2023,09:54:42.600,0.000,-0.188,1.000,,,,,
2_S2,09/05/2023,09:54:42.700,0.000,-0.125,0.938,,,,,
2_S2,09/05/2023,09:54:42.800,0.000,-0.188,0.938,,,,,
2_S2,09/05/2023,09:54:42.900,0.063,-0.125,1.125,,,,,
2_S2,09/05/2023,09:54:43.000,-0.063,-0.188,1.000,-1281.0,388.5,258.0,,
2_S2,09/05/2023,09:54:43.100,0.063,-0.313,1.000,,,,,
2_S2,09/05/2023,09:54:43.200,-0.125,-0.188,1.063,,,,,
2_S2,09/05/2023,09:54:43.300,-0.188,-0.375,0.938,,,,,
2_S2,09/05/2023,09:54:43.400,-0.063,-0.313,1.000,,,,,
2_S2,09/05/2023,09:54:43.500,-0.063,-0.125,1.000,-2733.0,1290.0,595.5,,
2_S2,09/05/2023,09:54:43.600,-0.188,-0.438,0.813,,,,,
2_S2,09/05/2023,09:54:43.700,-0.188,-0.438,0.938,,,,,
2_S2,09/05/2023,09:54:43.800,-0.188,-0.375,0.875,,,,,
2_S2,09/05/2023,09:54:43.900,-0.313,-0.375,0.875,,,,,
2_S2,09/05/2023,09:54:44.000,-0.188,-0.313,0.938,-129.0,180.0,-4053.0,,
2_S2,09/05/2023,09:54:44.100,-0.313,-0.250,0.875,,,,,
2_S2,09/05/2023,09:54:44.200,-0.313,-0.125,0.938,,,,,
2_S2,09/05/2023,09:54:44.300,-0.438,-0.188,1.000,,,,,
2_S2,09/05/2023,09:54:44.400,-0.375,-0.188,0.938,,,,,
2_S2,09/05/2023,09:54:44.500,-0.438,-0.188,1.000,-354.0,396.0,-8509.5,,
2_S2,09/05/2023,09:54:44.600,-0.500,-0.125,1.063,,,,,
2_S2,09/05/2023,09:54:44.700,-0.375,-0.188,0.938,,,,,
2_S2,09/05/2023,09:54:44.800,-0.438,-0.188,0.938,,,,,
2_S2,09/05/2023,09:54:44.900,-0.313,-0.125,1.000,,,,,
2_S2,09/05/2023,09:54:45.000,-0.250,0.063,1.000,-5272.5,1407.0,480.0,,
2_S2,09/05/2023,09:54:45.100,-0.063,0.125,0.938,,,,,
2_S2,09/05/2023,09:54:45.200,0.000,0.063,1.063,,,,,
2_S2,09/05/2023,09:54:45.300,-0.063,0.000,1.000,,,,,
2_S2,09/05/2023,09:54:45.400,-0.063,0.188,1.063,,,,,
2_S2,09/05/2023,09:54:45.500,0.000,0.188,1.063,-1218.0,499.5,1272.0,,
2_S2,09/05/2023,09:54:45.600,0.000,0.063,0.938,,,,,
2_S2,09/05/2023,09:54:45.700,-0.063,0.000,1.000,,,,,
2_S2,09/05/2023,09:54:45.800,-0.063,0.000,1.063,,,,,
2_S2,09/05/2023,09:54:45.900,0.000,-0.063,0.938,,,,,
2_S2,09/05/2023,09:54:46.000,-0.688,0.438,1.438,-382.5,-4687.5,10602.0,,
2_S2,09/05/2023,09:54:46.100,0.000,-0.125,1.063,,,,,
2_S2,09/05/2023,09:54:46.200,-0.063,-0.125,1.000,,,,,
2_S2,09/05/2023,09:54:46.300,-0.063,-0.063,0.938,,,,,
2_S2,09/05/2023,09:54:46.400,-0.063,-0.063,0.875,,,,,
2_S2,09/05/2023,09:54:46.500,-0.063,-0.063,1.000,3616.5,-15667.5,12303.0,,
2_S2,09/05/2023,09:54:46.600,0.000,0.000,0.938,,,,,
2_S2,09/05/2023,09:54:46.700,0.000,0.063,0.813,,,,,
2_S2,09/05/2023,09:54:46.800,0.063,0.188,1.000,,,,,
2_S2,09/05/2023,09:54:46.900,0.000,0.000,1.000,,,,,
2_S2,09/05/2023,09:54:47.000,0.125,0.625,0.875,-850.5,204.0,772.5,,
2_S2,09/05/2023,09:54:47.100,0.069,0.344,0.932,,,,,
2_S2,09/05/2023,09:54:47.200,-0.038,0.013,0.888,,,,,
2_S2,09/05/2023,09:54:47.300,-0.019,-0.106,0.963,,,,,
2_S2,09/05/2023,09:54:47.400,-0.038,-0.125,1.000,,,,,
2_S2,09/05/2023,09:54:47.500,-0.156,-0.156,1.000,-2659.5,870.0,-229.5,,
2_S2,09/05/2023,09:54:47.600,-0.275,-0.463,0.900,,,,,
2_S2,09/05/2023,09:54:47.700,-0.275,-0.782,0.788,,,,,
2_S2,09/05/2023,09:54:47.800,-0.163,-0.525,0.888,,,,,
2_S2,09/05/2023,09:54:47.900,-0.063,-0.375,0.938,,,,,
2_S2,09/05/2023,09:54:48.000,-0.188,-0.438,0.875,216.0,288.0,-4048.5,,
2_S2,09/05/2023,09:54:48.100,-0.250,-0.500,0.875,,,,,
2_S2,09/05/2023,09:54:48.200,-0.188,-0.125,0.938,,,,,
2_S2,09/05/2023,09:54:48.300,-0.313,-0.438,0.938,,,,,
2_S2,09/05/2023,09:54:48.400,-0.250,-0.438,0.938,,,,,
2_S2,09/05/2023,09:54:48.500,-0.313,-0.375,0.813,291.0,426.0,-8037.0,,
2_S2,09/05/2023,09:54:48.600,-0.375,-0.438,1.000,,,,,
2_S2,09/05/2023,09:54:48.700,-0.375,-0.500,0.938,,,,,
2_S2,09/05/2023,09:54:48.800,-0.250,-0.313,0.875,,,,,
2_S2,09/05/2023,09:54:48.900,-0.188,-0.188,1.063,,,,,
2_S2,09/05/2023,09:54:49.000,-0.125,-0.188,1.000,-3850.5,1038.0,3619.5,,
2_S2,09/05/2023,09:54:49.100,-0.063,-0.063,1.000,,,,,
2_S2,09/05/2023,09:54:49.200,-0.063,-0.125,1.063,,,,,
2_S2,09/05/2023,09:54:49.300,0.063,0.000,0.938,,,,,
2_S2,09/05/2023,09:54:49.400,0.063,-0.125,0.938,,,,,
2_S2,09/05/2023,09:54:49.500,0.063,-0.063,1.000,-823.5,411.0,1086.0,,
2_S2,09/05/2023,09:54:49.600,0.125,-0.063,0.938,,,,,
2_S2,09/05/2023,09:54:49.700,0.000,-0.125,1.063,,,,,
2_S2,09/05/2023,09:54:49.800,-0.125,-0.063,0.875,,,,,
2_S2,09/05/2023,09:54:49.900,-0.063,-0.188,1.000,,,,,
2_S2,09/05/2023,09:54:50.000,0.063,-0.125,0.938,-1399.5,2796.0,4467.0,,
2_S2,09/05/2023,09:54:50.100,-0.063,-0.250,1.125,,,,,
2_S2,09/05/2023,09:54:50.200,0.000,-0.188,0.938,,,,,
2_S2,09/05/2023,09:54:50.300,-0.063,-0.313,0.938,,,,,
2_S2,09/05/2023,09:54:50.400,0.000,-0.188,1.000,,,,,
2_S2,09/05/2023,09:54:50.500,0.063,-0.125,1.000,-1182.0,988.5,2475.0,,
2_S2,09/05/2023,09:54:50.600,0.000,-0.125,0.938,,,,,
2_S2,09/05/2023,09:54:50.700,0.000,-0.188,1.000,,,,,
2_S2,09/05/2023,09:54:50.800,0.000,-0.313,1.000,,,,,
2_S2,09/05/2023,09:54:50.900,0.063,-0.188,0.938,,,,,
2_S2,09/05/2023,09:54:51.000,0.000,-0.063,1.000,-1138.5,385.5,634.5,,
2_S2,09/05/2023,09:54:51.100,-0.063,-0.125,1.125,,,,,
2_S2,09/05/2023,09:54:51.200,-0.125,-0.250,0.750,,,,,
2_S2,09/05/2023,09:54:51.300,-0.188,-0.313,1.000,,,,,
2_S2,09/05/2023,09:54:51.400,-0.313,-0.375,0.813,,,,,
2_S2,09/05/2023,09:54:51.500,-0.125,-0.438,1.000,-13086.0,-1545.0,-1725.0,,
2_S2,09/05/2023,09:54:51.600,-0.125,-0.375,1.000,,,,,
2_S2,09/05/2023,09:54:51.700,-0.125,-0.313,0.875,,,,,
2_S2,09/05/2023,09:54:51.800,-0.188,-0.250,0.750,,,,,
2_S2,09/05/2023,09:54:51.900,-0.125,-0.313,1.000,,,,,
2_S2,09/05/2023,09:54:52.000,-0.125,-0.250,1.063,-11053.5,480.0,2800.5,,
2_S2,09/05/2023,09:54:52.100,-0.013,-0.194,1.007,,,,,
2_S2,09/05/2023,09:54:52.200,0.150,-0.038,0.950,,,,,
2_S2,09/05/2023,09:54:52.300,0.144,-0.088,0.982,,,,,
2_S2,09/05/2023,09:54:52.400,0.125,-0.125,0.963,,,,,
2_S2,09/05/2023,09:54:52.500,0.094,-0.125,0.969,-874.5,318.0,727.5,,
2_S2,09/05/2023,09:54:52.600,0.063,-0.175,0.975,,,,,
2_S2,09/05/2023,09:54:52.700,0.044,-0.231,0.957,,,,,
2_S2,09/05/2023,09:54:52.800,0.000,-0.188,1.000,,,,,
2_S2,09/05/2023,09:54:52.900,0.000,-0.188,1.000,,,,,
2_S2,09/05/2023,09:54:53.000,0.000,-0.125,0.938,-1954.5,2125.5,2572.5,,
2_S2,09/05/2023,09:54:53.100,0.000,-0.125,0.938,,,,,
2_S2,09/05/2023,09:54:53.200,0.000,-0.063,0.938,,,,,
2_S2,09/05/2023,09:54:53.300,-0.063,-0.125,1.000,,,,,
2_S2,09/05/2023,09:54:53.400,0.000,-0.063,1.063,,,,,
2_S2,09/05/2023,09:54:53.500,-0.063,-0.188,1.000,9580.5,-9232.5,10746.0,,
